concept,trial_index,rt,time_elapsed,pointer_device,familiar
aardvark,2,35052,62318,fine,false
aardvark,2,86967,200638,fine,true
aardvark,2,40493,72572,fine,false
accordion,2,30462,37710,fine,true
accordion,2,105696,147959,fine,true
air_conditioner,2,37120,340396,fine,true
air_conditioner,2,28330,44687,fine,true
air_conditioner,2,77066,130356,fine,true
air_mattress,2,45038,58890,fine,true
air_mattress,2,24622,41569,fine,true
air_mattress,2,197518,1079166,fine,true
alpaca,2,68081,738610,fine,true
alpaca,2,43411,75650,fine,true
alpaca,2,76586,98572,fine,false
anteater,2,48818,53826,fine,true
anteater,2,91079,113778,fine,true
anteater,2,24757,31568,fine,true
anvil,2,242397,1214513,fine,true
apple_tree,2,28994,40487,fine,true
applesauce,2,79718,117683,fine,true
arch,2,10416,267780,fine,true
arch,2,22966,84558,fine,true
arugula,2,56828,119858,fine,true
arugula,2,50832,1450841,fine,true
arugula,2,37055,62916,fine,false
arugula,2,114339,259255,fine,true
ashtray,2,22830,38266,fine,true
ashtray,2,60263,85780,fine,true
ashtray,2,201343,228649,fine,true
ashtray,2,48402,80766,fine,true
avocado,2,13922,34668,fine,true
axe,2,29261,46304,fine,true
backpack,2,73341,108253,fine,true
backpack,2,125875,153057,fine,true
backpack,2,41220,73718,fine,true
bagpipe,2,58159,1543455,fine,false
bagpipe,2,17866,80485,coarse,true
bagpipe,2,35086,158078,fine,true
bagpipe,2,32381,369061,fine,true
banana,2,43818,87922,fine,true
banjo,2,459846,483182,fine,true
banjo,2,54325,92983,fine,true
banjo,2,13436,219044,fine,true
baseball_glove,2,27904,45074,fine,true
baseball_glove,2,13391,27428,fine,true
bat2,2,16521,80901,fine,true
bat2,2,23646,80536,fine,true
bat2,2,15617,67060,fine,false
bat2,2,34965,50338,fine,true
bathtub,2,216628,251081,fine,true
bathtub,2,17571,57174,fine,true
bathtub,2,50289,56972,fine,true
bathtub,2,34133,54202,fine,true
bathtub,2,48344,74833,fine,true
bathtub,2,57101,75997,fine,true
bathtub,2,5775,11750,fine,true
bathtub,2,29057,41144,fine,false
bathtub,2,34010,56834,fine,true
bathtub,2,69137,112393,fine,true
beachball,2,14974,20007,fine,true
beanbag,2,32313,51059,fine,true
beanbag,2,42293,53224,fine,true
beanbag,2,20960,40457,fine,true
beanbag,2,17525,55398,fine,true
beard,2,43542,56811,fine,true
beaver,2,76503,128541,fine,true
beaver,2,516479,532171,fine,true
beaver,2,21132,65200,fine,false
bedpost,2,63822,149902,fine,true
bedpost,2,57571,106451,fine,true
bedpost,2,92664,141056,fine,true
beehive,2,69671,95146,fine,true
beehive,2,43931,109990,fine,true
beehive,2,31976,56396,fine,true
beehive,2,40456,56975,fine,true
beehive,2,31177,47577,fine,true
beehive,2,57613,92325,fine,true
beehive,2,105739,114677,fine,true
beer,2,76802,113457,fine,false
beer,2,77869,125280,fine,true
beer,2,59936,111770,fine,true
bell_pepper,2,28216,52578,fine,true
bench,2,13601,18927,fine,true
bench,2,81403,131437,fine,true
bench,2,101334,158926,fine,true
bib,2,40731,58688,fine,true
bin,2,42929,61101,fine,false
bin,2,17584,51563,fine,false
bin,2,46284,68273,fine,true
birdcage,2,45816,69263,fine,true
birdcage,2,84224,130524,fine,true
blazer,2,36102,69251,fine,true
blazer,2,35837,52599,fine,true
blazer,2,34784,48848,fine,true
blimp,2,19448,38609,fine,true
blowfish,2,49889,86970,fine,true
blowfish,2,107629,138798,fine,false
blowtorch,2,213329,835726,fine,false
blowtorch,2,17187,31428,fine,true
blowtorch,2,49778,63809,fine,true
board_game,2,50539,56951,fine,true
board_game,2,22817,40151,fine,true
board_game,2,96948,121824,fine,true
boat,2,72962,78371,fine,true
bok_choy,2,149520,168526,fine,false
bologna,2,19311,25565,fine,true
bologna,2,22302,62634,fine,true
bologna,2,32185,67959,fine,true
bologna,2,34307,83659,fine,true
bologna,2,45258,65536,fine,false
bologna,2,27304,51949,fine,true
bologna,2,13009,249461,coarse,false
bologna,2,12330,524088,fine,false
bone,2,38330,80318,fine,true
bookmark,2,18479,204834,fine,true
bookmark,2,78451,111769,fine,true
bookshelf,2,67039,91750,fine,false
bookshelf,2,78521,292814,fine,true
bookshelf,2,17640,24440,fine,true
boulder,2,25832,85314,fine,true
boulder,2,9498,29172,fine,true
boulder,2,22633,37747,fine,true
bow2,2,18899,35191,fine,true
bow2,2,11682,18442,fine,true
bow2,2,123517,175061,fine,true
bow2,2,19416,271721,fine,true
boxer_shorts,2,13753,30889,fine,true
boxer_shorts,2,41375,72356,fine,true
boxer_shorts,2,24260,149178,fine,true
branch,2,81832,248623,fine,true
branch,2,19134,39818,fine,true
branch,2,34105,70236,fine,true
branch,2,75629,96743,fine,true
breadstick,2,182015,202254,fine,true
briefcase,2,42406,87387,fine,true
briefcase,2,50545,73942,fine,false
briefcase,2,91243,123616,fine,true
briefcase,2,17911,197496,fine,true
brussels_sprouts,2,145451,180532,fine,true
brussels_sprouts,2,26097,45177,fine,true
buffet,2,53854,94468,fine,false
bulletproof_vest,2,42494,107202,fine,true
bungee,2,56796,228876,fine,true
buoy,2,49544,86084,fine,false
buoy,2,112405,141181,fine,true
buoy,2,52069,86038,fine,true
buoy,2,75815,113691,fine,false
butter,2,12679,28785,fine,true
butter,2,11095,1871829,fine,true
butter,2,193494,242458,fine,false
cabinet,2,57806,118063,fine,true
cabinet,2,37915,49692,fine,true
cable,2,68523,90770,fine,true
cable,2,38566,104082,fine,false
cable,2,65867,113642,fine,true
cake,2,18286,33617,fine,true
cake,2,76008,110014,fine,true
cake,2,101738,186006,fine,true
cake,2,23633,33142,fine,true
calculator,2,31107,88713,fine,true
calculator,2,36827,1023141,fine,true
calculator,2,37083,62131,fine,true
camcorder,2,217188,239187,fine,true
camcorder,2,56145,82786,fine,true
camcorder,2,157836,370534,fine,true
camel,2,35476,59968,fine,true
camel,2,28496,690906,fine,true
camel,2,24178,167982,fine,false
camera1,2,15352,31464,fine,true
camera1,2,154866,195952,fine,true
camera_lens,2,60689,75723,fine,true
camera_lens,2,27291,57891,fine,true
can,2,7231,15500,fine,true
can,2,60558,163598,fine,true
can,2,11418,16211,fine,true
candlestick,2,61152,119958,fine,true
candlestick,2,24125,62755,fine,true
candlestick,2,24782,41430,fine,true
candlestick,2,40740,514936,fine,true
candlestick,2,61299,791502,fine,true
cardigan,2,65519,90784,fine,true
carousel,2,78385,216215,fine,true
carousel,2,81593,92459,coarse,true
carriage,2,27145,234974,fine,true
carrot,2,15471,42224,fine,true
carrot,2,52991,83946,fine,true
carrot,2,16221,107294,fine,false
carrot,2,25070,28658,fine,true
cashew,2,54436,643753,fine,true
cd_player,2,63647,101385,fine,false
centerpiece,2,75180,106016,fine,true
centrifuge,2,17678,465367,fine,true
centrifuge,2,17798,28948,fine,true
chain,2,28528,35721,fine,true
chain,2,21346,68164,fine,true
chandelier,2,129810,199645,fine,true
chandelier,2,105136,382096,fine,true
cheeseburger,2,45584,235640,fine,true
cheeseburger,2,15982,30894,fine,false
cheeseburger,2,20583,73185,fine,false
chest1,2,24982,41303,fine,true
chest1,2,58864,67268,fine,true
chest1,2,86906,123198,fine,true
chest1,2,50878,275176,fine,true
chimney,2,54321,146125,fine,true
chimney,2,35766,142191,fine,true
chin,2,18428,50271,fine,false
chopsticks,2,12912,38699,fine,true
chopsticks,2,200252,251758,fine,true
chopsticks,2,127411,163026,fine,true
chopsticks,2,54808,87445,fine,true
chute,2,35498,62888,fine,true
chute,2,111594,213498,fine,false
chute,2,49654,100355,fine,false
cigarette_butt,2,133553,156365,fine,true
cigarette_butt,2,51339,86423,fine,true
cigarette_holder,2,23675,51472,fine,false
cigarette_holder,2,16306,49468,fine,false
cleaver,2,30744,737419,fine,true
cleaver,2,51889,63508,fine,true
cleaver,2,55676,801489,fine,true
cleaver,2,16644,261636,fine,true
cobra,2,28555,72416,fine,true
cobra,2,95655,135477,fine,true
cockatoo,2,18895,49297,fine,true
cockatoo,2,33006,67844,fine,true
cockatoo,2,27034,58137,fine,true
cockatoo,2,40960,50157,fine,false
coconut,2,28667,52047,fine,true
coconut,2,48894,69783,fine,true
coconut,2,19277,193493,fine,true
coconut,2,7940,11625,fine,true
coconut,2,29949,38190,fine,false
coconut,2,94140,119741,fine,true
coconut,2,24761,42047,fine,true
coconut,2,75358,132349,fine,false
coconut,2,27516,67646,fine,true
coffee,2,24764,121222,fine,true
coffee,2,18043,24809,fine,false
coffee,2,56619,134085,fine,true
coffee,2,139578,177970,fine,true
coffee_filter,2,109856,119156,fine,true
coffee_filter,2,45512,90500,fine,true
coffee_filter,2,21653,37231,fine,true
coffee_pot,2,43325,54612,coarse,false
coleslaw,2,41469,158126,fine,true
coleslaw,2,100658,120766,fine,true
coleslaw,2,36245,52800,fine,false
combination_lock,2,41678,54248,fine,true
combination_lock,2,21807,60420,fine,true
combination_lock,2,83999,135994,fine,true
combination_lock,2,93019,116426,fine,true
comic_book,2,140638,166209,fine,true
compost,2,82126,108843,fine,true
compost,2,35796,50389,fine,true
cookie,2,79663,452129,fine,true
cookie,2,19774,42763,coarse,true
cookie,2,56562,248329,fine,true
cookie,2,37703,51654,fine,true
cookie_cutter,2,191378,246599,fine,true
cookie_cutter,2,43207,85300,fine,true
cookie_cutter,2,23205,29264,fine,true
coop,2,57911,76806,fine,true
coop,2,155877,214527,fine,false
corkscrew,2,67552,128495,fine,true
cornbread,2,91102,122962,coarse,true
cornbread,2,87585,103837,fine,true
cornbread,2,15079,33308,fine,true
cornbread,2,44916,944767,fine,true
cornhusk,2,132084,166171,fine,true
cornhusk,2,40194,194321,fine,true
cornhusk,2,37427,44380,fine,true
cornhusk,2,15630,52304,fine,true
cornhusk,2,70270,135235,fine,true
cotton_candy,2,31531,64222,fine,true
cotton_candy,2,17512,288783,fine,true
cotton_candy,2,22337,39549,fine,true
couch,2,37933,64784,fine,true
couch,2,50489,68764,fine,true
couch,2,96452,405611,fine,false
cougar,2,75174,163981,fine,true
cougar,2,53654,103785,fine,false
cougar,2,171006,216720,fine,false
cougar,2,60266,151875,fine,true
coyote,2,51581,320464,fine,true
cracker,2,79529,103576,fine,true
crane,2,37789,45061,fine,true
crayfish,2,68542,92313,fine,true
crouton,2,54608,88324,fine,false
crouton,2,25766,45691,fine,true
crouton,2,21359,39360,fine,true
crouton,2,7495,19637,fine,true
crow,2,102816,157155,fine,true
crow,2,31204,47845,fine,true
crow,2,134278,233866,fine,true
crow,2,72583,2042148,fine,false
crown,2,14431,53218,fine,true
crown,2,54945,81566,fine,true
crutch,2,45939,70182,fine,true
crutch,2,14700,44403,fine,false
crutch,2,40704,50690,fine,true
crystal_ball,2,22486,98900,fine,true
crystal_ball,2,26103,82683,fine,true
crystal_ball,2,54880,99123,fine,true
cuckoo_clock,2,48057,68486,fine,true
cup,2,27709,88937,fine,true
cup,2,8544,13202,fine,true
cup,2,79608,114110,fine,true
cutting_board,2,12227,175425,fine,true
cutting_board,2,56870,78360,fine,true
cutting_board,2,59487,172391,fine,true
cutting_board,2,49980,55575,fine,true
cutting_board,2,55822,59438,fine,true
deer,2,48765,117283,fine,true
defibrillator,2,81017,121103,fine,true
defibrillator,2,23337,95428,fine,false
dessert,2,145114,289183,fine,true
dessert,2,86920,113813,fine,true
dessert,2,77019,129671,fine,true
dessert,2,22818,39501,fine,true
detonator,2,124862,142985,fine,false
detonator,2,48037,75475,fine,false
detonator,2,27162,554609,fine,true
diskette,2,29567,39489,fine,true
diskette,2,84060,116632,fine,true
doghouse,2,97316,131204,fine,true
doghouse,2,28873,53166,fine,true
doghouse,2,51482,112095,fine,true
doghouse,2,48426,126617,fine,true
doghouse,2,74599,129188,fine,true
doghouse,2,12024,31787,fine,true
doghouse,2,39164,1823141,fine,true
doghouse,2,45253,47282,fine,true
doghouse,2,38910,44861,fine,true
doghouse,2,28413,86158,fine,true
doghouse,2,20296,40855,fine,true
doghouse,2,129770,174072,fine,true
doily,2,82804,148899,fine,true
doily,2,53196,1215473,fine,false
doily,2,105189,123108,fine,true
dollhouse,2,45468,73216,fine,true
doorknob,2,91988,193294,coarse,true
doorknob,2,69959,192113,fine,false
doorknob,2,572059,612631,fine,true
doorknocker,2,53095,81129,fine,true
doorknocker,2,19598,29737,fine,true
doorknocker,2,63061,89819,fine,true
doorknocker,2,19041,26869,fine,true
doorknocker,2,127614,213442,fine,true
doorknocker,2,14987,26432,fine,false
doormat,2,37768,82323,fine,true
doormat,2,127046,177785,fine,true
doormat,2,43629,84981,fine,true
dragonfly,2,19561,279008,fine,true
dragonfly,2,21889,24727,fine,true
dragonfly,2,29530,56930,fine,false
dragonfly,2,38247,71228,fine,true
drawer,2,34018,56662,fine,true
drawer,2,15052,247995,fine,true
drawer,2,186695,259598,fine,true
drawer,2,83352,141793,fine,true
dress,2,73630,96655,fine,true
drink,2,11690,37767,fine,true
drink,2,15177,50894,fine,true
drink,2,9825,15297,fine,true
duckling,2,41764,69051,fine,true
duster,2,62290,95904,fine,true
duster,2,25728,44802,fine,true
dynamite,2,66205,119845,fine,true
dynamite,2,49965,70317,fine,true
dynamite,2,71527,233099,fine,true
ear,2,141275,164278,fine,true
ear,2,106687,166430,fine,true
ear,2,8734,12940,fine,true
easel,2,34289,58867,fine,true
eclair,2,15295,68104,fine,true
eclair,2,18706,36187,fine,true
eggnog,2,30116,80253,fine,true
eggnog,2,54803,215267,fine,false
eggplant,2,17212,28598,fine,true
eggplant,2,81979,112149,fine,true
elbow,2,20600,39372,fine,true
elbow,2,17030,52610,fine,true
elbow,2,32539,114347,fine,true
elbow,2,32363,92760,fine,true
enchilada,2,54355,119233,fine,false
enchilada,2,24038,49167,fine,true
enchilada,2,16301,23247,coarse,true
enchilada,2,69557,104504,fine,true
envelope,2,24128,57370,fine,true
envelope,2,41504,126916,fine,true
envelope,2,48496,222832,fine,true
faucet,2,29621,40433,fine,true
fence,2,44940,61533,fine,true
fence,2,17385,190357,fine,true
fig,2,21738,467433,fine,true
fig,2,77154,99188,fine,false
fig,2,9980,453068,fine,false
fig,2,24592,63294,fine,false
figurine,2,84178,310996,fine,true
figurine,2,59462,89132,fine,true
figurine,2,127463,169590,fine,true
fireplace,2,32020,48670,fine,true
firetruck,2,32384,38956,fine,true
firewood,2,44370,71079,fine,true
fish,2,65664,162520,fine,true
fish,2,23624,53909,fine,true
fish,2,46327,117824,fine,true
fishbowl,2,12605,34975,fine,true
fishbowl,2,100284,201314,fine,true
fishbowl,2,4443,10815,fine,true
flag,2,48265,1276846,fine,false
flag,2,33128,61455,fine,true
flag,2,19502,220313,fine,true
flamethrower,2,282907,502611,fine,false
flashbulb,2,26439,58312,fine,false
flashbulb,2,23368,53872,fine,true
flashbulb,2,130141,571079,fine,false
flashbulb,2,24584,60584,fine,false
flashbulb,2,25230,63823,fine,true
flour,2,70298,111506,fine,true
flour,2,52890,283177,fine,true
foam,2,45216,79980,fine,true
folder,2,13626,23371,fine,true
football,2,41490,58839,fine,true
football,2,141194,168060,fine,true
football,2,21100,53947,fine,true
football,2,48181,62013,fine,true
footprint,2,31580,172989,fine,true
footprint,2,46266,80163,fine,true
footprint,2,43613,83750,fine,true
footprint,2,21387,43704,fine,true
footprint,2,64828,87676,fine,true
footprint,2,15063,25898,fine,true
footrest,2,39144,266191,fine,true
footrest,2,41198,85191,fine,true
fountain_pen,2,16634,43980,fine,false
fountain_pen,2,36293,70425,fine,true
french_horn,2,58917,76368,fine,true
frog,2,48918,93970,fine,true
fungus,2,88813,106902,fine,true
fungus,2,59782,75384,fine,true
fungus,2,16891,36678,fine,true
gargoyle,2,63644,77584,fine,false
gauge,2,41192,71137,fine,true
gauge,2,109128,198966,fine,true
gauze,2,20819,39620,fine,true
gauze,2,13038,41334,fine,true
gauze,2,147441,180776,fine,false
gauze,2,82193,245588,fine,true
gem,2,103050,436048,fine,true
gift,2,83952,105746,fine,true
gift,2,41973,222734,fine,true
gift,2,15037,37321,fine,true
ginger,2,14615,34841,fine,false
giraffe,2,87353,120303,fine,true
girl,2,27345,102500,coarse,true
glasses,2,50209,121973,fine,true
glasses,2,78600,110880,coarse,true
glasses,2,2703844,2712085,fine,true
glasses,2,28373,111614,fine,true
go-kart,2,38820,48959,fine,false
goat,2,37853,56462,fine,true
goat,2,41457,849013,fine,true
goat,2,60041,108606,fine,true
goldfish,2,63068,112526,fine,false
goldfish,2,26036,51330,fine,true
goldfish,2,115614,156456,fine,true
goldfish,2,18413,33529,fine,true
goldfish,2,18087,140203,fine,true
goldfish,2,18173,30083,fine,true
gorilla,2,51492,81362,fine,true
grapevine,2,58960,106604,fine,true
grapevine,2,72588,168013,fine,true
gravy,2,55063,87053,fine,false
gravy,2,19192,43949,fine,false
gravy,2,240489,247887,fine,true
gravy,2,51928,760994,fine,true
grill,2,27103,79570,fine,true
grill,2,75760,1485668,fine,true
grill,2,19512,610536,fine,false
grille,2,17331,189197,fine,true
guinea_pig,2,53148,386569,fine,false
ham,2,77770,130548,fine,true
ham,2,111813,195021,fine,true
ham,2,17816,20340,fine,true
hamster,2,105767,130408,fine,true
hand,2,68684,202398,fine,true
hand,2,27718,89596,fine,true
hand,2,91451,176003,fine,true
handkerchief,2,36444,97190,fine,true
handkerchief,2,35299,46347,fine,true
handkerchief,2,17536,31493,fine,true
handle,2,52459,1000340,fine,true
handle,2,71557,104580,fine,true
handle,2,50449,72790,fine,true
handle,2,32126,70297,fine,true
hard_disk,2,192524,719064,fine,true
hard_disk,2,74394,90127,fine,true
hard_disk,2,136094,230020,fine,true
hat,2,34240,125972,fine,true
hat,2,32537,125621,fine,true
hay,2,31151,41898,fine,true
hay,2,54961,893436,fine,false
headlight,2,28864,81102,fine,true
headset,2,47329,78985,fine,true
headset,2,88685,111509,fine,true
headset,2,13106,24484,fine,true
hearse,2,36902,80718,fine,true
hearse,2,59374,603976,fine,true
hearse,2,67968,95761,fine,true
hearse,2,30484,52899,fine,false
hearse,2,46153,62003,fine,true
helicopter,2,62544,66126,fine,true
helicopter,2,84233,132943,fine,true
highchair,2,25471,65600,fine,true
highchair,2,44391,73275,fine,false
highchair,2,92019,249927,fine,true
hinge,2,60628,89295,fine,true
hinge,2,52222,189837,fine,true
hinge,2,39695,71495,fine,false
hinge,2,68028,311036,fine,true
hip,2,75412,156358,fine,true
hip,2,71319,107064,fine,true
hole,2,27857,57075,coarse,true
hole,2,4470,270606,fine,true
honey,2,302033,374899,fine,true
honeycomb,2,57872,75727,fine,false
honeycomb,2,29408,64458,fine,true
hopscotch,2,60333,84771,fine,true
hopscotch,2,255108,1311736,fine,true
hopscotch,2,208750,230817,fine,true
hopscotch,2,68725,256333,fine,true
hot-air_balloon,2,146801,158707,fine,true
hourglass,2,64145,83230,fine,true
hourglass,2,59105,694051,fine,true
hummus,2,77878,103886,fine,false
hummus,2,15917,42864,fine,false
hummus,2,1142116,1179106,fine,true
ice-cream_cone,2,82288,338273,fine,true
ice-cream_cone,2,34602,71737,fine,true
ice-cream_cone,2,33947,61583,fine,true
ice_cream,2,31482,61106,fine,true
ice_cream,2,36702,59320,fine,true
ice_cream,2,34282,87664,fine,true
ice_pack,2,139797,406148,fine,true
icicle,2,195384,348039,fine,true
icicle,2,42021,78506,fine,true
insole,2,68381,121947,fine,true
insole,2,15767,23724,fine,true
insole,2,49559,83450,fine,true
insole,2,11813,93088,fine,true
jetski,2,51322,89139,fine,true
jetski,2,31667,42089,fine,true
jigsaw_puzzle,2,20789,43817,fine,true
juicer1,2,50855,76734,fine,true
juicer1,2,243966,340887,fine,true
juicer1,2,56220,365631,fine,true
kale,2,78778,147278,fine,true
kale,2,67357,127694,fine,true
kebab,2,10182,14217,fine,true
kebab,2,12652,27709,fine,false
keg,2,16781,35412,fine,true
kimono,2,113828,151963,fine,true
kimono,2,41913,59077,fine,true
kimono,2,45334,56570,fine,true
kimono,2,17153,28789,fine,true
kimono,2,74702,94455,fine,true
kimono,2,60091,322345,fine,false
knitting_needle,2,22736,46198,fine,true
knitting_needle,2,11267,21369,fine,true
knitting_needle,2,48668,66356,fine,true
knob,2,4209,12878,fine,true
lampshade,2,32922,72261,fine,true
lampshade,2,37043,66656,fine,true
lampshade,2,43969,113639,fine,true
laptop,2,89087,146022,fine,true
laptop,2,35492,289019,fine,true
laundry_basket,2,44838,68893,fine,true
laundry_basket,2,38044,478841,fine,true
lavender,2,97099,127925,fine,false
lavender,2,120915,174501,fine,true
lavender,2,82693,122970,fine,true
leech,2,54128,86746,fine,true
lego,2,31493,41549,fine,true
lego,2,69179,116109,fine,true
lego,2,10861,432707,fine,true
lego,2,10758,28954,fine,false
lego,2,185674,221271,fine,true
lego,2,56767,74831,fine,true
lego,2,43713,80280,fine,true
lemonade,2,90751,116486,fine,true
leopard,2,104744,347542,fine,true
leopard,2,193055,267617,fine,true
leopard,2,187569,227912,fine,true
license_plate,2,52795,85968,fine,true
license_plate,2,47279,62904,fine,true
license_plate,2,26156,32205,fine,true
life_jacket,2,15846,107704,fine,true
lime,2,48896,101649,coarse,true
lime,2,31696,45039,fine,true
lip_gloss,2,23978,49410,fine,true
lip_gloss,2,39923,67232,fine,true
lip_gloss,2,139918,366972,fine,true
lip_gloss,2,87165,113914,fine,true
lip_gloss,2,37790,405147,fine,true
lobster,2,14475,31048,fine,true
locker,2,40472,48712,fine,true
locker,2,78083,110165,fine,true
luggage,2,18045,38090,fine,true
luggage,2,46602,83178,fine,true
luggage,2,63281,135134,fine,true
luggage,2,49722,103604,fine,true
luggage,2,47949,55420,fine,true
machine_gun,2,52277,65952,fine,true
machine_gun,2,53740,81503,fine,false
machine_gun,2,19353,43488,fine,true
machine_gun,2,40625,48704,fine,true
machine_gun,2,14844,22830,fine,true
machine_gun,2,49741,90425,fine,false
machine_gun,2,81173,112845,fine,true
makeup,2,103610,124986,fine,true
makeup,2,43798,80361,fine,true
makeup,2,51708,73265,fine,true
manatee,2,37472,47400,fine,true
manatee,2,35392,69952,fine,true
manatee,2,38198,54730,fine,true
mandolin,2,14769,31467,fine,false
mandolin,2,136707,159704,fine,false
mandolin,2,13660,43809,fine,false
maple_syrup,2,12117,42412,fine,true
maple_syrup,2,24463,132411,fine,true
marijuana,2,100283,173612,fine,true
marijuana,2,34787,75229,fine,true
marker,2,37753,214957,fine,true
meat_grinder,2,27782,67273,fine,false
meatball,2,54175,143668,fine,false
meatball,2,26550,97620,fine,true
microphone,2,29505,35471,fine,true
microwave,2,80428,213660,fine,true
microwave,2,13826,633436,fine,true
milkshake,2,91219,145755,fine,true
milkshake,2,37514,59330,fine,true
mint,2,19529,33918,fine,false
mint,2,39758,46095,fine,false
mint,2,86424,838968,fine,true
mole,2,30987,64213,fine,true
money,2,80553,170892,fine,true
money,2,52290,83124,fine,true
money,2,33834,59636,fine,true
money,2,131657,287843,fine,true
moose,2,77665,188226,fine,true
moose,2,56294,103460,fine,false
moose,2,200090,263570,fine,false
moose,2,49487,69694,fine,true
moose,2,121551,428635,fine,true
mosquito_net,2,29030,35306,fine,false
mosquito_net,2,62390,84295,fine,false
moss,2,44193,72335,fine,true
moss,2,157244,201743,fine,true
moss,2,109883,280204,fine,true
mouse2,2,14599,100659,fine,false
mouse2,2,43087,1328029,fine,true
mug,2,33030,97908,fine,true
mug,2,18569,51058,fine,true
mug,2,35901,278371,fine,true
mug,2,62133,70802,fine,true
mug,2,13259,1135616,fine,true
mulberry,2,81827,111328,fine,true
mulberry,2,35614,248538,fine,true
mushroom,2,11548,38877,fine,true
mushroom,2,44142,154573,fine,true
mushroom,2,50768,91550,fine,true
mushroom,2,38481,66066,fine,true
mustard,2,139421,165350,fine,false
mustard,2,53023,156559,fine,true
mustard,2,32766,78759,fine,true
nail_file,2,15386,30559,fine,true
nail_file,2,32574,95737,fine,true
nail_file,2,11560,325346,fine,true
nail_file,2,147178,344769,fine,true
nail_file,2,33010,48804,fine,true
nail_polish,2,15406,99047,fine,true
nail_polish,2,77919,113166,fine,true
nail_polish,2,37764,51416,fine,true
nail_polish,2,289517,318726,fine,true
nail_polish,2,52548,69882,fine,true
napkin,2,17290,70547,fine,true
nest,2,82305,590284,fine,true
noodle,2,30488,53044,coarse,false
noodle,2,34065,730461,fine,true
oilcan,2,17482,47483,fine,true
oilcan,2,42961,90423,fine,true
oilcan,2,94491,139575,fine,true
oilcan,2,20797,38768,fine,true
oilcan,2,22963,40849,fine,true
orange,2,89291,124524,fine,true
orange,2,9750,32318,fine,false
orange,2,43297,75512,fine,true
orchid,2,31508,72838,fine,true
origami,2,41872,46459,fine,true
ostrich,2,50938,79811,fine,true
ostrich,2,23995,59974,fine,true
ostrich,2,19921,53211,fine,true
ostrich,2,79552,204723,fine,true
ostrich,2,53804,80717,fine,true
ostrich,2,14499,545165,fine,true
outfit,2,33719,64119,fine,true
outfit,2,17397,23980,fine,true
outfit,2,51256,72932,fine,true
paintbrush,2,28647,46405,fine,true
paintbrush,2,66768,88409,fine,true
paintbrush,2,51295,97666,fine,true
paintbrush,2,27061,49369,fine,true
painting,2,52585,97778,fine,true
painting,2,122442,140764,fine,true
painting,2,59865,139476,fine,true
painting,2,22099,115017,fine,true
papaya,2,91071,389737,fine,false
paper_plate,2,27079,40014,fine,true
paper_plate,2,5263,9733,fine,true
paper_plate,2,13276,187268,fine,true
paperclip,2,12086,67388,fine,true
paperclip,2,17394,26117,fine,true
paperclip,2,22462,58729,fine,true
paperclip,2,9782,15242,fine,true
patch,2,12792,559108,fine,true
patch,2,34482,50231,fine,true
patch,2,58762,87747,fine,true
patty,2,29889,89521,fine,true
pear,2,33760,65265,fine,true
pear,2,12793,18581,fine,true
pear,2,36337,57708,fine,false
pecan,2,46943,135060,fine,true
pecan,2,35938,525408,fine,true
pecan,2,73499,118997,fine,false
pen,2,55053,77661,fine,true
pen,2,64917,89816,fine,true
pen,2,61922,326601,fine,true
pen,2,78879,128607,fine,true
pencil_sharpener,2,90450,122447,fine,true
pencil_sharpener,2,74654,314372,fine,true
pepper1,2,64105,143969,fine,true
pepper1,2,46183,56963,fine,true
pepper1,2,75618,88335,fine,true
pepper1,2,73934,107996,fine,true
pepper2,2,13733,33735,fine,true
pepper2,2,15166,50070,fine,true
pepper_mill,2,150046,186636,fine,true
pepper_mill,2,42854,101886,fine,true
pepper_mill,2,15030,26468,fine,true
pepperoni,2,29741,57000,fine,true
pet_food,2,72141,150295,fine,true
pet_food,2,44437,582673,fine,true
pheasant,2,25424,32446,fine,true
pheasant,2,53440,84261,fine,false
pheasant,2,126478,171265,fine,true
pheasant,2,78002,134372,fine,true
pheasant,2,51564,75224,fine,true
pickax,2,36595,55684,fine,true
pickax,2,41721,115489,fine,true
pickax,2,12175,17863,fine,true
pickle,2,64609,167179,fine,true
pickle,2,72032,97164,fine,true
pigeon,2,17041,30252,fine,true
pigeon,2,143684,152084,fine,true
pigeon,2,61601,1055448,fine,true
pillbox,2,41208,230490,fine,true
pine_tree,2,32091,742194,fine,true
pine_tree,2,18739,30178,fine,true
pine_tree,2,37963,47124,fine,true
pine_tree,2,53938,84987,fine,true
pizza,2,41119,64504,fine,true
plum,2,14593,27452,fine,true
poodle,2,404527,429596,fine,true
poodle,2,28990,38246,fine,false
poodle,2,9886,16661,fine,false
poodle,2,76161,98087,fine,true
poppy,2,13249,20840,fine,false
porcupine,2,68380,145945,fine,true
porcupine,2,115690,143392,fine,true
possum,2,33123,42179,fine,true
possum,2,130982,236268,fine,true
possum,2,87733,138409,fine,true
potato,2,15100,53344,fine,true
potpie,2,51085,170542,fine,true
potpie,2,27516,37934,fine,true
potpie,2,31780,38530,fine,true
pretzel,2,302146,405120,fine,false
puck,2,22927,72666,fine,true
puck,2,11453,19011,fine,true
puck,2,41244,50155,fine,false
puddle,2,44112,56184,fine,true
puddle,2,167486,204766,fine,true
puddle,2,35463,42354,fine,true
puddle,2,58943,356054,fine,true
pug,2,50571,70303,fine,true
pug,2,31544,42524,fine,true
pulley,2,25460,71402,fine,false
pulley,2,51897,79409,fine,true
pulley,2,14875,44876,fine,false
pulley,2,242656,386251,fine,true
pumpkin,2,20713,112860,fine,true
punching_bag,2,36620,196500,fine,true
punching_bag,2,18890,52801,fine,true
punching_bag,2,51419,77063,fine,true
punching_bag,2,24054,52641,fine,true
puppet,2,115643,156177,fine,false
puppet,2,153497,178378,fine,true
puppet,2,123351,313170,fine,true
puppet,2,51547,79714,fine,true
quad,2,76740,121068,fine,false
quiche,2,70200,106863,fine,true
raccoon,2,65499,95250,fine,true
rack1,2,10926,456751,fine,true
rack1,2,20607,34688,fine,false
rack1,2,117492,167836,fine,true
radish,2,26619,145083,fine,true
rain_gauge,2,101984,136026,fine,true
rattle,2,23518,243466,fine,false
rattle,2,54065,72795,fine,true
ravioli,2,42692,69582,fine,true
ravioli,2,87480,171465,fine,false
ravioli,2,37392,63769,fine,true
ravioli,2,46745,59851,fine,true
razor_blade,2,26659,36979,fine,true
razor_blade,2,85308,100892,fine,true
razor_blade,2,14791,84455,fine,true
razor_blade,2,24627,41107,fine,true
recliner,2,74951,111661,fine,true
ribbon,2,15412,100545,fine,true
ribbon,2,21294,42691,fine,false
rim,2,52464,94303,fine,true
rim,2,41957,341474,fine,true
rim,2,39010,70354,fine,true
rim,2,49059,188432,fine,true
rim,2,92704,143943,fine,true
rim,2,20327,185737,fine,true
rim,2,33714,154357,fine,true
rim,2,61498,97021,fine,true
roadsweeper,2,179002,450157,fine,true
roadsweeper,2,20708,77055,fine,true
robe,2,25712,142734,fine,true
robe,2,31696,859980,fine,true
robot,2,96484,109208,fine,true
robot,2,54417,69470,fine,true
robot,2,37207,84760,fine,true
robot,2,45193,97175,fine,true
robot,2,82804,137407,fine,true
robot,2,66702,87662,fine,true
roller_coaster,2,81275,569766,fine,true
roller_coaster,2,63767,168142,fine,true
roller_coaster,2,63208,92282,fine,true
rolling_pin,2,17902,35241,fine,true
rolling_pin,2,31167,51851,fine,true
rolling_pin,2,22424,45099,fine,true
rooster,2,28031,42557,fine,true
rooster,2,62557,84212,fine,true
root,2,39925,59384,fine,true
rope,2,23324,46996,fine,true
rope,2,153548,250726,fine,true
rope,2,56110,79354,fine,true
rope,2,6468,31660,fine,true
router,2,38853,215434,fine,true
router,2,43637,126365,fine,true
rust,2,121011,169105,fine,true
rust,2,111781,2071776,fine,false
rust,2,142475,1349984,fine,true
saffron,2,40150,66827,fine,false
saffron,2,20232,39341,fine,false
sailboat,2,11070,32452,fine,true
sailboat,2,17327,139342,fine,true
sailboat,2,11788,82758,fine,true
sailboat,2,20663,81779,fine,true
sandal,2,61940,96449,fine,true
sandal,2,201507,344530,fine,true
sandbag,2,59700,70937,fine,false
sandbag,2,50230,124074,fine,true
sandbag,2,22540,393760,fine,true
sandbag,2,170968,193443,fine,true
sandwich,2,21494,29974,fine,true
sandwich,2,85003,321191,fine,true
sandwich,2,148924,177525,fine,true
satellite,2,88632,100288,fine,true
sauerkraut,2,74889,111083,fine,true
sawhorse,2,34756,64691,fine,false
sawhorse,2,19854,31084,fine,true
sawhorse,2,415455,441011,fine,true
scallop,2,34530,65083,fine,true
scallop,2,42509,84606,fine,true
scallop,2,10347,1071597,fine,false
scallop,2,19555,41716,fine,false
scalpel,2,274587,306192,fine,true
scalpel,2,16462,111783,fine,true
scalpel,2,11050,23995,coarse,true
scalpel,2,25684,40708,fine,true
scone,2,15784,37132,fine,true
scone,2,14614,27595,fine,true
scooter,2,27141,182424,fine,true
scooter,2,35744,70999,fine,true
scooter,2,25054,54163,fine,true
scooter,2,42055,73260,fine,true
scrabble,2,43134,136551,fine,true
scrabble,2,164808,346849,fine,true
scrabble,2,54674,122308,fine,true
screwdriver,2,43219,57557,fine,true
screwdriver,2,41255,69789,fine,true
screwdriver,2,35438,42948,fine,true
seatbelt,2,25998,39930,fine,true
seatbelt,2,27399,59583,fine,true
sequin,2,21535,98145,fine,false
sequin,2,35948,69907,fine,false
sequin,2,10484,20968,fine,false
sequin,2,113879,239735,fine,true
shears,2,39856,72738,fine,true
shell2,2,40242,342778,fine,true
shoehorn,2,39244,59954,fine,true
shopping_basket,2,86902,96237,fine,true
shopping_basket,2,24127,39811,fine,true
shopping_cart,2,18074,126922,fine,true
shopping_cart,2,47612,185120,fine,true
shopping_cart,2,43059,93147,fine,true
shopping_cart,2,36202,80985,fine,true
shopping_cart,2,22959,2145335,fine,true
shopping_cart,2,24448,65829,fine,true
shopping_cart,2,56222,265422,fine,true
skeleton,2,71545,234326,fine,true
skeleton,2,60210,85963,fine,true
skeleton,2,99782,137879,fine,true
ski_boots,2,33052,40962,fine,false
ski_boots,2,53393,108332,fine,true
skirt,2,48202,60906,fine,true
skirt,2,32128,169255,fine,true
skirt,2,9034,94684,fine,true
skirt,2,31438,68027,fine,true
sled,2,25106,32489,fine,true
sledgehammer,2,17585,48345,fine,true
sledgehammer,2,41608,47775,fine,true
sledgehammer,2,22325,53593,fine,true
sledgehammer,2,62925,90943,fine,true
sledgehammer,2,32515,61191,fine,true
sledgehammer,2,6776,185059,fine,true
slide,2,103126,240728,fine,true
slide,2,137154,971887,fine,true
slipper,2,95975,119358,fine,true
slipper,2,81515,105038,fine,true
slipper,2,40330,79933,fine,true
slipper,2,73840,97380,fine,true
sloth,2,88421,118381,fine,false
sloth,2,57042,77396,fine,true
sloth,2,50783,77509,fine,false
sloth,2,306415,528963,fine,true
snail,2,19037,40471,fine,true
snail,2,34082,54284,fine,true
snail,2,27144,46932,fine,true
snail,2,32851,60537,fine,true
snail,2,17868,24222,fine,false
snowball,2,19658,40815,fine,true
snowball,2,34716,60674,fine,true
snowboard,2,26407,31538,fine,true
snowboard,2,24000,51124,fine,true
snowboard,2,30154,57240,fine,true
snowboard,2,34460,62265,fine,true
snowsuit,2,86727,126472,fine,false
snowsuit,2,55720,79114,fine,true
soccer_ball,2,39122,143231,fine,true
soccer_ball,2,41816,72435,fine,true
sock,2,22472,56791,fine,true
solar_panel,2,76019,144336,fine,true
solar_panel,2,56421,99026,fine,true
solar_panel,2,67009,93949,fine,true
sombrero,2,16978,65788,fine,true
soup,2,50619,66261,fine,true
soup,2,126424,133812,fine,true
soup,2,51032,127888,fine,true
soup,2,17404,966804,fine,true
spacesuit,2,62968,100605,fine,true
spacesuit,2,29841,34696,fine,true
spacesuit,2,17096,1030603,fine,true
spaghetti,2,16425,65889,fine,true
spaghetti,2,14860,23306,fine,true
sparkler,2,32433,251156,fine,true
speedometer,2,99824,173296,fine,true
speedometer,2,90921,211317,fine,true
speedometer,2,44426,77194,fine,true
stained_glass,2,801685,852141,fine,true
stained_glass,2,39260,73746,fine,false
stained_glass,2,42388,59583,fine,false
staple,2,11057,24911,fine,true
staple,2,185029,240602,fine,true
staple,2,30298,44538,fine,false
star_fruit,2,72914,107686,fine,false
star_fruit,2,17539,37867,fine,false
star_fruit,2,16583,39016,fine,false
station_wagon,2,7686,12676,fine,true
step_stool,2,31132,71323,fine,true
step_stool,2,150683,178028,fine,true
step_stool,2,27744,42834,fine,true
step_stool,2,31703,35642,fine,true
stew,2,54909,89292,fine,true
sticker,2,43678,99045,fine,true
sticker,2,20219,171408,fine,true
stiletto,2,324381,763549,fine,true
stiletto,2,51994,129846,fine,false
stingray,2,17911,899542,fine,true
stingray,2,75544,499062,fine,true
stir_fry,2,24170,37093,fine,true
stirrup,2,125198,251146,fine,true
stirrup,2,13891,43069,fine,false
stirrup,2,44677,91209,fine,true
stirrup,2,17432,121050,fine,false
stirrup,2,19244,73784,fine,true
stirrup,2,201003,209960,fine,true
stirrup,2,37743,195988,fine,true
stopwatch,2,24896,60482,fine,true
stove2,2,279112,340342,fine,true
stroller,2,81437,103752,fine,true
stump,2,42334,66159,fine,true
stump,2,62648,94130,fine,true
stump,2,22559,54830,fine,true
stump,2,19751,26001,fine,false
suspenders,2,44856,193331,fine,true
suspenders,2,102059,111028,fine,true
suspenders,2,72974,91077,fine,false
sweater,2,31520,81548,fine,true
sweater,2,32022,127498,fine,false
sweater,2,55025,70184,fine,true
sweatsuit,2,16185,22602,fine,true
sweatsuit,2,212883,258394,fine,true
sweatsuit,2,44406,190663,fine,true
sweatsuit,2,50966,76462,fine,true
sweeper,2,56352,379327,fine,true
sweeper,2,11478,34496,fine,true
sweeper,2,39242,70033,fine,true
sweeper,2,9431,88480,fine,true
switch,2,57463,81060,fine,true
switch,2,13074,36521,fine,false
switch,2,18817,24422,fine,true
switch,2,15287,38325,fine,true
syringe,2,68290,85302,fine,true
syringe,2,19659,69989,fine,true
syringe,2,8432,22066,fine,true
syringe,2,57612,83407,fine,true
syringe,2,33560,74223,fine,true
syringe,2,14358,95850,fine,true
t-shirt,2,35314,69349,fine,true
t-shirt,2,27142,54651,fine,true
t-shirt,2,47019,141457,fine,true
t-shirt,2,29683,43701,fine,true
tab,2,7633,397777,fine,true
tab,2,25573,65612,fine,true
tackle,2,254887,271040,fine,true
tackle,2,25621,57700,fine,true
tackle,2,115343,153441,fine,true
tackle,2,255870,289354,fine,true
tag,2,261534,299975,fine,true
tamale,2,90798,154142,fine,false
tamale,2,23592,35135,fine,true
tamale,2,61834,142633,fine,true
tank1,2,72612,87862,fine,true
tank1,2,58499,97188,fine,true
teabag,2,94124,127943,fine,true
teabag,2,37133,50695,fine,true
teacup,2,26597,55805,fine,true
teacup,2,19781,62090,fine,true
teepee,2,63418,78354,fine,true
teepee,2,38911,272067,fine,true
teepee,2,11812,16056,fine,true
thread,2,44972,80750,fine,true
thread,2,13848,54178,fine,true
thread,2,187110,223905,fine,true
thread,2,31511,55597,fine,true
throne,2,141613,150216,fine,true
throne,2,50834,63794,fine,true
throne,2,23904,47795,fine,false
throne,2,59307,86303,fine,false
ticktacktoe,2,63935,84806,fine,true
tile,2,31405,67782,fine,true
toast,2,27093,240089,coarse,true
toast,2,44542,95537,fine,true
toast,2,29412,80026,fine,true
toast,2,22399,41268,fine,true
toaster_oven,2,34726,114347,fine,true
toaster_oven,2,132001,184422,fine,true
toaster_oven,2,204290,261727,fine,true
toaster_oven,2,44652,70408,fine,true
tomato,2,12821,37433,fine,true
tomato_sauce,2,188019,307795,fine,true
tongue,2,13997,29743,fine,true
tongue,2,30753,96204,fine,true
tool,2,21894,69596,fine,true
tool,2,107578,147713,fine,true
tool,2,13706,27126,fine,true
tool,2,13304,25587,fine,false
tool,2,43871,119111,fine,true
tool,2,37787,70457,fine,true
toothpaste,2,52051,75956,fine,true
toothpaste,2,55670,98298,fine,true
toothpaste,2,50636,82524,fine,true
toothpaste,2,164426,213213,fine,true
toothpick,2,5057,25146,fine,true
toothpick,2,25645,93909,fine,true
toothpick,2,11106,42407,fine,true
torch,2,24919,32835,fine,true
torch,2,22953,47713,fine,true
tortellini,2,77820,105851,fine,true
tortellini,2,21763,50774,fine,false
tortellini,2,35425,127029,fine,false
towel,2,19443,43727,fine,true
towel_rack,2,15863,36462,fine,true
towel_rack,2,29294,81876,fine,true
towel_rack,2,31685,89635,fine,true
train,2,73345,97280,fine,true
train,2,20861,49000,fine,true
trampoline,2,86437,173041,fine,true
treasure,2,113110,145048,fine,true
treasure,2,37636,66827,fine,true
trident,2,8378,79481,fine,false
trident,2,27515,53254,fine,true
trolley,2,50382,133976,fine,true
trophy,2,33604,41645,fine,true
trophy,2,9870,28557,fine,true
turbine,2,63946,72826,fine,true
tweezers,2,54061,130199,fine,true
tweezers,2,39078,73538,fine,true
typewriter,2,23038,40147,fine,true
umbrella,2,38537,64379,fine,true
umbrella,2,8072,1482146,fine,true
umbrella,2,45418,60523,fine,true
vacuum,2,22346,36160,fine,true
vegetable,2,10815,18256,fine,true
vegetable,2,55707,102189,fine,true
videocassette,2,46952,65987,fine,true
videocassette,2,61828,84020,fine,true
violin,2,112786,156058,fine,true
violin,2,98971,124359,fine,true
vise,2,152081,182849,fine,true
volleyball,2,81070,97205,fine,true
waffle,2,140717,716361,fine,true
waffle,2,43489,61427,fine,true
waffle,2,32355,42255,fine,true
waffle,2,71932,96102,fine,true
walker1,2,19971,38963,fine,true
walker1,2,37678,78025,fine,true
walker1,2,46686,68279,fine,true
walker1,2,29022,36044,fine,true
walker1,2,41306,104428,fine,true
walker1,2,24853,50033,fine,false
walker1,2,21485,69029,fine,true
walker2,2,87783,112097,fine,true
walker2,2,95755,117306,fine,true
walker2,2,75567,188443,fine,true
wallet,2,12981,58096,fine,true
wallet,2,79774,105049,fine,true
wallet,2,299764,327101,fine,true
washboard,2,16745,31981,fine,false
washboard,2,57518,75501,fine,true
washboard,2,16278,21210,fine,false
washboard,2,23293,82202,fine,true
washboard,2,53837,117558,fine,true
washboard,2,17587,45776,fine,true
wasp,2,66260,90098,fine,true
wasp,2,18066,56229,fine,true
wasp,2,100109,130707,fine,true
wasp,2,147235,155968,fine,true
wasp,2,63321,111186,fine,true
wasp,2,127409,138994,fine,true
wasp,2,44902,72299,fine,true
wasp,2,43597,52824,fine,true
waterwheel,2,54930,84619,fine,false
webcam,2,20156,69518,fine,true
webcam,2,48167,167415,fine,true
wedge,2,46869,88585,fine,true
wetsuit,2,66258,77572,fine,false
wetsuit,2,35020,89283,fine,true
wetsuit,2,34990,90843,fine,true
wetsuit,2,34314,57287,fine,true
whisk,2,65067,95682,fine,true
whisk,2,74453,113295,fine,true
whisk,2,26545,51530,fine,true
whiteboard,2,33755,47772,fine,true
whiteboard,2,43588,53893,fine,true
wig,2,50397,239386,fine,true
windshield,2,70168,215551,fine,true
windshield,2,83215,111867,fine,true
windshield,2,29363,59567,fine,true
wire,2,43715,62723,fine,true
wire,2,31156,92717,fine,true
wire,2,32461,62616,fine,true
wok,2,19884,701874,fine,true
wolf,2,117429,195666,fine,false
wolf,2,20080,69514,fine,true
wolf,2,135263,1996300,fine,true
wolf,2,69993,74585,fine,true
wreck,2,83590,138584,fine,true
wrist,2,17144,26864,fine,true
wrist,2,105594,147435,fine,true
wrist,2,22010,48140,fine,true
zebra,2,70430,123940,fine,true
abacus,4,47919,365507,fine,true
accordion,4,32657,65716,fine,true
accordion,4,81660,145374,fine,true
accordion,4,94153,195413,fine,true
aloe,4,37938,77602,fine,true
antelope,4,72188,136898,fine,true
antelope,4,19525,67210,fine,true
anvil,4,12934,82779,fine,false
apple_tree,4,37876,178706,fine,true
aquarium,4,92191,430719,fine,true
aquarium,4,57138,119797,fine,true
aquarium,4,52827,161601,fine,true
arch,4,23759,436144,fine,true
bagel,4,15168,62701,fine,true
bandage,4,35805,169810,fine,true
bandage,4,47687,380071,fine,true
bandage,4,48168,131365,fine,true
bandage,4,73441,168182,fine,true
bank,4,28812,764539,fine,true
bank,4,35600,94257,coarse,false
barbell,4,23199,125095,fine,true
barbell,4,35762,84550,fine,false
barbell,4,15317,69110,fine,true
barbell,4,19949,86395,fine,true
barbell,4,18365,215396,fine,true
barbell,4,27464,121029,fine,true
barbell,4,26190,141246,fine,true
barbell,4,28593,102950,fine,true
barbell,4,63386,279169,fine,true
barbell,4,108011,828038,fine,true
baseball,4,53322,433629,fine,true
baseball_glove,4,13367,65741,fine,true
basketball,4,31886,158659,fine,true
basketball,4,25758,166067,fine,true
basketball,4,38746,569691,fine,true
bassinet,4,69913,172674,fine,true
batter,4,202994,496473,fine,true
battery,4,16454,724393,fine,false
bazooka,4,44586,291952,fine,false
bazooka,4,5069,20586,fine,true
bazooka,4,67357,144691,fine,true
bazooka,4,100618,228221,fine,true
beanie,4,20563,365144,fine,true
beanie,4,14880,62948,fine,true
beanie,4,62251,196922,fine,true
beard,4,11293,59727,fine,true
beard,4,33505,234155,fine,true
beard,4,33769,134966,fine,true
beard,4,115108,371753,fine,true
bed,4,61064,148843,fine,true
bed,4,71218,198663,fine,true
bedpan,4,12234,43220,fine,false
beet,4,57114,115056,fine,true
belt_buckle,4,26987,71723,fine,true
belt_buckle,4,165501,265649,fine,true
bib,4,67879,163160,fine,true
binder,4,33004,114328,fine,true
binder,4,51111,280364,fine,true
binder,4,65964,188200,fine,true
binder,4,37484,81852,fine,false
blanket,4,53133,136040,fine,true
blimp,4,169512,1252173,fine,true
blimp,4,28591,73469,fine,true
blimp,4,22051,85671,fine,true
blindfold,4,47324,94422,fine,true
blindfold,4,31682,129246,fine,true
blindfold,4,53442,80299,fine,true
blindfold,4,5636,34585,fine,true
block,4,108733,502115,fine,true
block,4,30864,104783,fine,false
block,4,23824,108701,fine,true
blower,4,87881,200880,fine,true
blower,4,22608,51488,coarse,true
blowfish,4,66020,153056,fine,true
blowfish,4,41841,116441,fine,true
blowfish,4,33176,167352,fine,true
blowgun,4,50418,2126382,fine,false
blowgun,4,93321,1450867,fine,true
blowgun,4,142858,319768,fine,true
blowtorch,4,43150,97741,fine,true
blowtorch,4,54741,617294,fine,true
blowtorch,4,33847,124404,fine,true
board_game,4,62180,164656,fine,true
board_game,4,40964,287811,coarse,true
board_game,4,56030,100903,fine,true
board_game,4,41795,123729,fine,true
bok_choy,4,29382,90455,fine,true
bonsai,4,33456,119418,fine,true
bookmark,4,33122,98021,fine,true
bookmark,4,17899,58741,fine,true
bookmark,4,17631,85204,fine,true
bookmark,4,8995,25207,fine,true
bookmark,4,66258,191671,fine,true
bookmark,4,22108,82309,fine,true
bookshelf,4,77012,136143,coarse,true
boomerang,4,40846,247421,fine,true
boomerang,4,16347,112904,fine,true
boomerang,4,62091,243186,fine,true
bow3,4,22421,151093,fine,true
bowler_hat,4,22483,341563,fine,true
bowler_hat,4,23247,151672,fine,true
bowtie,4,76251,211114,fine,true
bowtie,4,26588,88078,fine,true
bowtie,4,30331,257240,fine,true
boxing_gloves,4,25473,69275,fine,true
bra,4,41574,108949,fine,true
bra,4,49541,271596,fine,true
bra,4,37671,152740,fine,true
bracelet2,4,65949,201428,fine,true
bracelet2,4,57331,241732,fine,true
braid,4,67043,139344,fine,true
braid,4,14520,210919,fine,true
brass_knuckles,4,37587,429063,fine,true
breadbox,4,13903,45681,fine,false
breadbox,4,49016,133146,fine,true
breadbox,4,11906,448097,fine,true
breadstick,4,9551,617592,fine,true
brick,4,27526,146703,fine,true
brick,4,16486,59666,fine,true
brooch,4,87730,137091,fine,true
brooch,4,108076,209418,fine,true
brooch,4,57276,110847,fine,false
brooch,4,65616,157292,fine,true
broom,4,67361,130906,fine,true
broom,4,26588,73597,fine,true
broom,4,34919,117036,fine,true
broom,4,37044,58317,fine,true
broom,4,110662,419644,fine,true
broom,4,36080,210478,fine,true
broom,4,40126,128884,fine,true
broom,4,22342,88168,fine,true
broom,4,32444,101498,fine,true
brownie,4,27295,103939,fine,true
brownie,4,125072,333465,fine,true
brownie,4,8501,83086,fine,false
brownie,4,103855,2110621,fine,true
brush,4,106236,594394,fine,true
brush,4,72655,171841,fine,true
bungee,4,46563,148918,fine,false
bungee,4,15517,471917,fine,true
burner,4,123257,180430,fine,true
burner,4,60160,314556,fine,true
burner,4,158192,377885,fine,true
burner,4,44790,159864,fine,true
burner,4,61962,143367,fine,true
cake_mix,4,36361,73915,fine,false
cake_mix,4,33817,84573,fine,true
cake_mix,4,31410,56500,fine,true
calculator,4,63470,140425,fine,true
calculator,4,32010,77686,fine,true
calf2,4,51410,914421,fine,true
camera2,4,37710,161207,fine,true
camera2,4,21965,109742,fine,true
camper,4,80219,147041,fine,true
camper,4,17196,78594,fine,true
camper,4,50185,86701,fine,true
camper,4,50047,108848,fine,true
candelabra,4,34995,128401,fine,true
candelabra,4,129719,246759,fine,true
candelabra,4,39166,54045,fine,false
candlestick,4,43741,408592,fine,true
candlestick,4,33445,246830,fine,true
candlestick,4,20405,80494,fine,true
car_door,4,63526,653518,fine,true
cardigan,4,26395,101031,fine,true
cardinal,4,174807,366537,fine,true
cardinal,4,63029,183958,fine,true
cardinal,4,112285,377513,fine,true
cardinal,4,27221,101588,fine,true
cardinal,4,44629,191748,fine,true
cash_register,4,64627,321363,fine,true
cash_register,4,20509,65024,fine,false
cash_register,4,49331,129759,fine,true
cauliflower,4,73317,169298,fine,true
centerpiece,4,98144,213621,fine,true
chain,4,43220,151346,fine,true
chain,4,12546,36606,fine,true
chair,4,52211,165910,fine,true
chair,4,82384,135515,fine,true
cheesecake,4,49487,194737,fine,true
cheesecake,4,89062,205484,fine,true
cherry,4,7745,100214,fine,true
cherry,4,18225,79088,fine,true
cherry,4,36084,235614,fine,true
cherry,4,19333,137351,fine,true
cherry,4,16595,869903,fine,true
chicken_wire,4,63797,236809,fine,true
chicken_wire,4,85804,199818,fine,true
chimney,4,37443,129255,fine,true
chin,4,94618,262779,fine,true
chin,4,17370,135396,fine,true
chin,4,23870,214359,fine,true
chin,4,17774,93295,fine,true
chin,4,29214,284897,fine,true
chin,4,16830,86079,fine,true
chin,4,159365,502162,fine,true
chisel,4,33659,107858,fine,true
chisel,4,29665,159159,fine,true
chisel,4,112921,350631,fine,true
chocolate,4,43506,138936,fine,true
christmas_card,4,43744,86937,fine,true
christmas_card,4,23837,63880,fine,true
christmas_card,4,54104,81066,fine,true
clipper1,4,249128,411488,fine,true
clipper1,4,305468,397892,fine,true
clothesline,4,43494,111136,fine,true
clothespin,4,96089,284825,fine,true
cockroach,4,65702,190868,fine,true
cockroach,4,49831,137428,fine,true
cockroach,4,29319,138723,fine,true
cocktail,4,28978,85259,fine,true
cocktail,4,16387,47480,fine,true
coconut,4,21045,99334,fine,true
coconut,4,81407,140370,fine,true
coconut,4,8823,70500,fine,true
coffee,4,73159,160853,fine,true
coffee_bean,4,26100,187205,fine,true
coffee_bean,4,35994,172258,fine,true
coffee_bean,4,11481,33275,fine,true
coffee_table,4,42822,69395,fine,true
coffee_table,4,47466,117632,fine,true
coffee_table,4,107072,609625,fine,true
coffeemaker,4,29255,139530,fine,true
coffin,4,111703,228575,coarse,true
coffin,4,16518,2731149,fine,true
coffin,4,64778,183889,fine,true
coffin,4,31888,229786,fine,true
coffin,4,120050,246468,fine,true
coffin,4,67178,199861,fine,true
coin,4,21238,240710,fine,true
coin,4,60615,240810,fine,true
coin,4,52756,134316,fine,true
column,4,26494,1515541,fine,true
column,4,24756,111379,fine,true
column,4,18350,633337,fine,true
comb,4,18973,73844,fine,true
comb,4,20938,57859,fine,true
comic_book,4,16879,1892044,fine,false
comic_book,4,268574,517096,fine,false
comic_book,4,28713,64434,fine,true
compass,4,43699,78389,fine,true
compass,4,33335,102160,fine,true
compass,4,130637,575127,fine,true
confetti,4,36470,97161,fine,false
confetti,4,17341,292703,fine,true
confetti,4,27624,185869,fine,true
confetti,4,91289,386113,fine,true
container,4,52803,191677,fine,true
container,4,34975,167818,fine,true
cooker,4,31538,139000,coarse,true
cordon_bleu,4,50545,232274,fine,false
cordon_bleu,4,12578,562025,fine,false
cordon_bleu,4,26239,112206,fine,false
cordon_bleu,4,55186,119089,fine,true
costume,4,104021,304931,fine,true
couch,4,30053,80493,fine,true
cougar,4,148120,326835,fine,true
cougar,4,20004,57779,fine,true
coyote,4,109083,177644,fine,true
coyote,4,54287,139280,fine,true
coyote,4,37636,130365,fine,true
crank,4,59676,246396,fine,false
crank,4,42824,135055,fine,false
crank,4,91442,194393,fine,true
credit_card,4,84899,165804,fine,true
credit_card,4,60031,591252,fine,true
credit_card,4,45032,169996,fine,true
creme_brulee,4,47119,190531,fine,false
creme_brulee,4,86358,328265,fine,true
creme_brulee,4,28151,136764,fine,true
creme_brulee,4,24152,70208,fine,true
crouton,4,52370,232636,fine,true
crouton,4,98550,223470,fine,true
crouton,4,107085,241669,fine,true
cruise_ship,4,58078,111892,fine,true
crutch,4,278854,715381,fine,true
crutch,4,9623,28869,fine,true
crutch,4,35256,140290,fine,true
crutch,4,41253,84184,fine,false
crystal1,4,108979,238561,fine,true
crystal1,4,32119,69879,fine,false
cucumber,4,16750,84832,fine,true
cucumber,4,17399,96751,fine,true
cup,4,18638,90031,fine,true
cup,4,60488,281504,fine,true
cup,4,24421,131851,fine,true
cup,4,16015,117240,fine,true
cutting_board,4,30668,642087,fine,true
cutting_board,4,18775,82470,fine,true
cutting_board,4,36097,187178,fine,true
cutting_board,4,20747,51349,fine,true
dalmatian,4,71214,152827,fine,true
dandelion,4,33326,109083,fine,true
dandelion,4,445821,492196,fine,true
dandelion,4,31869,95605,fine,true
dart,4,13787,57423,fine,true
dashboard,4,57537,191384,fine,true
dashboard,4,108144,245233,fine,true
detonator,4,13619,44834,fine,true
detonator,4,100739,255074,fine,false
detonator,4,20684,71675,fine,false
dial,4,34510,269009,fine,true
dice,4,191786,270456,fine,true
dice,4,78150,565728,fine,true
dice,4,62281,125738,fine,true
dishrag,4,50120,179296,fine,true
dishrag,4,24049,156901,fine,true
diving_board,4,24186,62912,fine,true
diving_board,4,40346,67636,fine,true
diving_board,4,85199,200083,fine,true
diving_board,4,56746,220549,fine,true
doghouse,4,50410,80398,fine,true
doghouse,4,17578,59458,fine,true
doily,4,33081,78812,fine,true
doll,4,111820,375816,fine,true
doll,4,27210,74250,fine,true
doll,4,70996,193061,fine,true
doll,4,30753,177637,fine,true
dolly,4,92764,242136,fine,true
dolly,4,46788,140464,fine,true
dolphin,4,26725,923069,fine,true
dolphin,4,147038,193681,fine,true
doorknocker,4,33493,96090,fine,true
dough,4,20437,50733,fine,true
dough,4,9260,79216,fine,true
dough,4,82443,146623,fine,true
dresser,4,27290,86894,fine,true
dresser,4,13148,50052,fine,false
dresser,4,107865,226487,fine,true
dresser,4,31075,92511,fine,true
drill,4,37414,65423,fine,true
drill,4,115115,292601,fine,true
drill,4,36202,126798,fine,true
drill,4,58643,143608,fine,true
duct,4,31442,97283,fine,true
duct,4,61225,113883,fine,true
duct,4,34855,94040,fine,true
duct,4,31182,54711,fine,true
duffel_bag,4,320458,495653,fine,true
duffel_bag,4,14816,117792,fine,true
dumpling,4,18621,48837,fine,false
dynamite,4,53246,630063,fine,true
eagle,4,40244,85149,fine,true
eagle,4,31767,162496,fine,true
eel,4,15264,64375,fine,true
eel,4,11673,41038,fine,false
eel,4,103433,349485,fine,true
eggplant,4,10611,82389,fine,true
elbow,4,23708,111720,fine,true
elbow,4,66668,195363,fine,true
enchilada,4,47835,133280,fine,true
enchilada,4,109121,264874,fine,true
enchilada,4,42972,174579,fine,true
enchilada,4,27472,105978,fine,true
enchilada,4,18242,48872,fine,true
espresso,4,81519,197739,fine,true
espresso,4,25799,68353,fine,true
espresso,4,25824,68296,fine,true
extinguisher,4,35084,76945,fine,true
extinguisher,4,123810,292344,fine,true
extinguisher,4,66952,325459,fine,true
extinguisher,4,62509,155848,fine,true
face_mask,4,42028,187738,fine,true
fan,4,58610,159860,fine,true
fan,4,35644,87927,fine,true
feather,4,17349,67909,fine,true
ferry,4,119883,564232,fine,true
ferry,4,27308,72407,fine,true
filing_cabinet,4,97431,551642,fine,true
filing_cabinet,4,28837,71403,fine,true
filing_cabinet,4,28627,109539,fine,true
fire_hydrant,4,14627,655577,fine,true
fire_hydrant,4,72379,291610,fine,true
fire_pit,4,78004,203501,fine,true
fire_pit,4,42154,69714,fine,true
fire_pit,4,210155,596457,fine,true
fire_pit,4,52448,190930,fine,true
firecracker,4,37396,100695,fine,false
fireplace,4,10911,58833,fine,true
firetruck,4,47157,152663,fine,true
firewood,4,186173,273755,fine,false
firewood,4,23471,78613,fine,true
fireworks,4,66912,133821,fine,true
fish,4,18063,95060,fine,true
fish,4,28116,66016,fine,true
fish,4,6708,131861,fine,true
flask,4,13778,81160,fine,true
flask,4,23516,288793,fine,true
flask,4,68933,879502,fine,true
flask,4,15042,757585,fine,false
floss,4,41073,739492,fine,true
football,4,31851,71639,fine,true
footbath,4,42246,174742,fine,true
footbath,4,153193,371613,fine,true
french_horn,4,52534,149820,fine,false
french_horn,4,50922,114796,fine,false
french_horn,4,46937,113681,fine,true
french_horn,4,233629,325024,fine,true
french_horn,4,160170,339305,fine,true
fruit,4,46450,138434,fine,true
fruit,4,174684,408301,fine,true
fruit,4,63571,149679,fine,true
fruit,4,24745,293321,fine,true
fruit,4,17341,59362,fine,true
fruit,4,77048,168587,fine,true
fruitcake,4,53900,149969,fine,true
fudge,4,89197,251947,fine,true
fudge,4,14246,65067,fine,true
fudge,4,73589,2122659,fine,false
fungus,4,16559,70260,fine,false
fungus,4,10904,69038,fine,false
furnace,4,78551,473695,fine,false
fuse,4,47555,111596,fine,true
gargoyle,4,111574,216039,fine,true
gargoyle,4,66506,165620,fine,true
gasket,4,8000,66995,fine,false
gauze,4,52426,128494,fine,true
gear,4,106746,291115,fine,true
gear,4,16325,55354,fine,false
gear,4,14530,288710,fine,true
gear,4,42824,64605,fine,true
gearshift,4,31465,72496,fine,true
generator,4,83451,224758,fine,true
generator,4,30017,85842,fine,true
generator,4,75375,144438,fine,true
giraffe,4,82428,197140,fine,true
giraffe,4,47687,256050,fine,true
globe,4,77397,144784,fine,true
globe,4,100959,255082,fine,true
globe,4,21303,74611,fine,true
glove,4,449804,541952,fine,true
glove,4,47073,194347,fine,true
glove,4,22045,140831,fine,true
goblet,4,67289,227331,fine,true
goblet,4,39585,627455,fine,true
gong,4,82327,160113,fine,true
gong,4,46890,106153,fine,true
gong,4,10999,155527,fine,false
gong,4,51232,99430,fine,true
goose,4,47493,151210,fine,true
goose,4,25297,1163834,fine,true
goose,4,46852,136801,fine,true
goose,4,126193,413297,fine,true
gorilla,4,105743,484171,fine,true
grain,4,6817,49353,fine,true
grain,4,25587,37869,fine,true
grain,4,5114,196002,fine,true
grasshopper,4,58928,305669,fine,true
grasshopper,4,18888,55179,fine,false
grasshopper,4,27895,107767,fine,false
grate,4,76953,134417,fine,true
grate,4,169522,301918,fine,true
gravel,4,61083,123147,fine,true
gravel,4,26930,294386,fine,true
grinder,4,68114,226113,fine,true
grinder,4,95306,172751,fine,true
grinder,4,24870,58559,fine,true
grits,4,19315,37619,fine,true
guitar,4,25449,128829,fine,true
guitar,4,37225,154219,fine,true
guitar,4,68886,125861,fine,true
gum,4,26346,248521,fine,true
gurney,4,40982,85559,fine,true
gurney,4,55783,1720456,fine,true
gurney,4,128105,218389,fine,true
hail,4,75146,198603,fine,true
hail,4,32731,85167,fine,true
hairbrush,4,67678,415920,fine,true
hairbrush,4,68370,171132,fine,true
hairdryer,4,9699,47882,fine,true
hairdryer,4,51863,128380,fine,true
hairdryer,4,77118,149439,fine,true
hairspray,4,20021,81449,fine,true
hairspray,4,33486,131453,fine,true
hairspray,4,24117,87178,fine,true
hammer,4,33756,133462,fine,true
hammer,4,37067,71580,fine,true
hammer,4,46718,107608,fine,true
handcuff,4,74420,138599,fine,true
handcuff,4,142753,467572,fine,true
handcuff,4,57159,179361,fine,true
handcuff,4,79307,124444,fine,true
harmonica,4,117788,304962,fine,true
harmonica,4,110764,243365,fine,true
harness,4,63190,229604,fine,false
harness,4,12998,47563,fine,false
hawk,4,49271,337109,fine,true
hawk,4,70305,481665,fine,true
headlight,4,62080,306409,fine,true
highchair,4,24076,157024,fine,false
highchair,4,395020,1163777,fine,true
highlighter,4,20855,210338,fine,true
highlighter,4,18016,71977,fine,true
highlighter,4,71596,167467,fine,true
hip,4,91259,234160,fine,true
hip,4,50525,169065,fine,true
hip,4,28955,87282,fine,true
hobbyhorse,4,250118,420840,fine,true
hobbyhorse,4,53613,69707,fine,true
hobbyhorse,4,82893,254228,fine,false
hockey_stick,4,175962,1056241,fine,true
hockey_stick,4,8764,87657,fine,true
hockey_stick,4,38946,217338,fine,true
hoe,4,16629,1501458,fine,true
hoe,4,99669,168559,fine,true
hoe,4,51546,116820,fine,true
hole,4,57518,146372,fine,true
hole,4,118410,378726,fine,true
hole,4,29455,136692,fine,true
holster,4,57833,160263,fine,true
honeypot,4,24990,73631,fine,false
honeypot,4,31711,62211,fine,true
hood,4,24252,95608,fine,true
hood,4,93434,348323,fine,true
hood,4,27224,104652,fine,false
horn,4,84688,200639,fine,true
horn,4,35984,94977,fine,true
horn,4,21979,64119,fine,true
horn,4,19556,37026,fine,true
horseshoe,4,38289,153261,fine,true
hot_tub,4,46850,124501,fine,true
hotdog,4,25537,142065,fine,true
hotdog,4,8350,286253,fine,true
hotdog,4,15369,77043,coarse,true
hubcap,4,89939,163194,fine,true
hula_hoop,4,57753,211796,fine,true
hummus,4,40938,223597,fine,true
hummus,4,42483,121324,fine,true
hummus,4,21016,61671,fine,true
hummus,4,25529,72358,fine,true
ice_cube,4,21275,69858,fine,true
ice_cube,4,17514,61004,fine,true
ice_cube,4,55629,192094,fine,true
ice_cube,4,20442,784901,fine,true
ice_cube,4,67574,187030,fine,true
ice_cube,4,111917,408593,fine,true
icepick,4,100596,305656,fine,true
insole,4,44885,174176,fine,true
insole,4,28396,73606,fine,true
insole,4,12130,73912,fine,false
ironing_board,4,10690,70876,fine,true
jacket,4,44492,125184,fine,true
jam,4,52085,194405,fine,true
jam,4,157483,194122,fine,true
jeans,4,127483,266036,fine,true
jeans,4,46855,116615,fine,true
jeans,4,78342,1192192,fine,true
jellyfish,4,40178,150825,fine,true
jigsaw_puzzle,4,109427,1566630,fine,true
jigsaw_puzzle,4,60126,330385,fine,true
jigsaw_puzzle,4,32280,86646,fine,true
jigsaw_puzzle,4,24808,56865,fine,true
jigsaw_puzzle,4,69332,135491,fine,true
jigsaw_puzzle,4,95741,198470,fine,true
jug,4,47021,118176,fine,true
jug,4,17200,297758,fine,true
kayak,4,21076,89298,fine,true
kayak,4,26378,252014,fine,false
kayak,4,42826,1325715,fine,false
kazoo,4,89302,439668,fine,true
kazoo,4,31338,434685,fine,true
kazoo,4,222097,324687,fine,true
kebab,4,25914,71453,fine,true
kebab,4,19965,125840,fine,true
keyhole,4,32771,114233,fine,true
keyhole,4,15790,51694,fine,true
keyhole,4,34874,777271,fine,false
keyhole,4,50498,151683,fine,true
kilt,4,136850,232703,fine,true
kilt,4,39562,118030,fine,false
kilt,4,129546,258376,fine,true
kilt,4,28864,231739,fine,false
kimono,4,212309,440830,fine,true
kimono,4,16817,74605,fine,true
kimono,4,35696,96644,fine,false
kimono,4,43866,134613,fine,true
kitten,4,259410,340107,fine,true
kitten,4,46022,605838,fine,true
kitten,4,53339,201870,fine,true
koala,4,51953,109573,fine,true
koala,4,14147,47099,fine,true
koala,4,41558,79035,fine,true
koala,4,101984,219636,fine,false
lab_coat,4,17829,122812,fine,true
lab_coat,4,93857,1426506,fine,true
lampshade,4,10099,54212,fine,true
lasagna,4,116884,233697,fine,true
lasagna,4,96735,245178,fine,true
lasagna,4,64425,226050,fine,true
lasagna,4,56669,153636,fine,true
leaf,4,28663,125665,fine,true
leaf,4,72198,246779,fine,true
leaf,4,20864,594754,fine,true
leech,4,118889,200269,fine,true
leech,4,164316,300517,fine,true
leech,4,27146,87716,fine,false
leek,4,53869,800699,fine,true
leek,4,33360,66774,fine,true
leek,4,24101,79241,fine,true
leek,4,32349,121552,fine,true
leggings,4,18221,170276,fine,true
leggings,4,23692,97425,fine,true
lego,4,53350,130161,fine,true
lego,4,43661,112002,fine,true
lego,4,13333,42810,fine,true
licorice,4,42582,111772,fine,true
light_switch,4,27856,158067,fine,true
light_switch,4,62904,224071,fine,true
lightning_bug,4,33401,88693,fine,true
lipstick,4,276445,894251,fine,true
lipstick,4,56380,258121,fine,false
lipstick,4,68964,269406,coarse,true
locker,4,10107,72062,fine,true
locker,4,25702,80169,fine,true
locker,4,33920,78867,fine,true
locker,4,65833,130653,fine,true
loincloth,4,57816,290955,fine,true
luggage,4,51280,220294,fine,true
luggage,4,47379,208163,fine,true
luggage,4,41592,1297067,fine,true
magnifier,4,81807,231014,fine,true
mail,4,54641,407594,fine,true
mandolin,4,32502,71403,fine,false
margarita,4,18633,124872,fine,true
margarita,4,28526,120026,fine,true
margarita,4,83732,166444,fine,true
margarita,4,40793,161834,fine,true
marijuana,4,74524,151654,fine,true
marijuana,4,99120,187858,fine,true
marker,4,10374,56100,fine,true
marshmallow,4,57080,229615,fine,true
marshmallow,4,24841,75149,fine,true
marshmallow,4,11229,210169,fine,true
marshmallow,4,37367,93880,fine,true
mascara,4,35450,182155,fine,true
mascara,4,24160,72828,fine,true
mascara,4,31340,131991,fine,false
metal_detector,4,21694,84567,fine,true
microscope,4,27089,78935,fine,true
microscope,4,38634,110077,fine,true
milk,4,44269,107900,fine,true
milk,4,41790,93913,fine,true
minivan,4,83118,169416,fine,true
minivan,4,79856,336891,fine,true
minivan,4,195372,731604,fine,true
minivan,4,23019,101784,fine,true
minivan,4,10892,46699,fine,true
minivan,4,35510,87159,fine,true
minivan,4,63156,200973,fine,true
mixer,4,46744,309402,fine,true
mixer,4,160633,484876,fine,true
mixer,4,36223,110466,fine,true
modem,4,47152,320026,fine,true
modem,4,41851,131642,fine,true
mole,4,67249,323222,fine,true
motorcycle,4,86729,205830,fine,true
motorcycle,4,74365,169967,fine,true
motorcycle,4,43790,108925,fine,true
mouse2,4,11588,30067,fine,true
mouse2,4,80096,247731,fine,true
mouse2,4,15253,33216,fine,false
mousse,4,34506,73916,fine,true
mousse,4,34980,122210,fine,true
mousse,4,108890,204742,fine,true
muffin,4,100254,163392,fine,true
mussel,4,22530,82190,fine,true
mussel,4,14193,37183,fine,false
mussel,4,39574,158336,fine,true
nacho,4,14946,57951,fine,true
nacho,4,28644,79691,fine,false
nacho,4,35808,211181,fine,true
nacho,4,35319,79788,fine,true
nail_file,4,32340,127608,coarse,true
nail_file,4,23052,245577,fine,true
nail_file,4,70273,310445,fine,false
napkin_ring,4,28113,378378,fine,true
notebook,4,46079,241925,fine,true
notepad,4,89735,316527,fine,true
notepad,4,62649,173462,fine,true
notepad,4,43364,83647,fine,true
octopus,4,60539,272879,fine,true
octopus,4,17539,133577,fine,true
octopus,4,84954,399978,fine,true
octopus,4,81091,351782,fine,true
octopus,4,19243,96996,fine,true
octopus,4,49002,160710,fine,true
octopus,4,18983,47572,coarse,true
octopus,4,73749,292916,fine,true
orange_rind,4,23671,108686,fine,false
orange_rind,4,28316,2179167,fine,true
orange_rind,4,24252,213721,fine,true
orange_rind,4,11688,81001,fine,true
organ,4,34902,113580,fine,true
organ,4,114746,280115,fine,true
oven,4,21676,105682,fine,true
oven,4,55888,132001,fine,true
oven,4,88782,213459,fine,true
oyster,4,40482,189092,fine,true
oyster,4,12637,130418,fine,false
oyster,4,16850,119965,fine,false
pacifier,4,53976,234985,fine,true
pacifier,4,72601,219601,fine,true
pacifier,4,89256,440675,fine,true
paintbrush,4,68739,176022,coarse,true
paintbrush,4,19636,76250,fine,true
pajamas,4,71540,249271,fine,true
pajamas,4,115142,196849,fine,true
pajamas,4,17788,196467,fine,true
pallet,4,24710,68413,fine,true
panther,4,34718,122983,fine,false
panther,4,94264,139060,fine,true
panther,4,73130,267284,fine,true
panther,4,11586,37948,fine,false
paper_plate,4,82704,155146,fine,true
paper_plate,4,77624,196514,fine,true
paper_plate,4,126932,202613,fine,true
paper_plate,4,27411,1210728,fine,true
patty,4,21942,76228,fine,true
patty,4,30488,59378,fine,true
peach,4,29295,124777,fine,true
peacock,4,98007,190830,fine,true
pedal,4,54418,139143,fine,true
pedal,4,52191,121901,fine,true
pedal,4,49688,165997,fine,true
pedal,4,18587,73961,fine,true
peg,4,9444,44415,fine,true
peg,4,53966,208202,fine,true
peg,4,134597,1196077,fine,true
pencil,4,96124,214543,fine,true
pencil,4,56788,200732,fine,true
pencil,4,20026,160885,fine,true
penguin,4,97274,306564,fine,true
penguin,4,22653,79640,fine,true
penguin,4,33682,118786,fine,true
pennant,4,49886,197472,fine,true
pennant,4,11230,262600,fine,false
pepper1,4,49866,90694,fine,true
pepper1,4,52447,97126,fine,true
pepper1,4,60149,167014,fine,true
pepper1,4,20274,108067,fine,true
peppermint,4,84340,146861,fine,true
peppermint,4,31373,77212,fine,true
peppermint,4,20096,98774,fine,true
pet_food,4,33217,541733,fine,true
photo_booth,4,66968,124292,fine,true
photograph,4,58540,170534,fine,false
photograph,4,85064,173885,fine,true
photograph,4,36287,118093,fine,true
photograph,4,121629,340325,fine,true
pigeon,4,54227,106955,fine,true
pigeon,4,51934,93564,fine,true
pigeon,4,68224,163611,fine,true
pillbox,4,138935,266971,fine,true
pillbox,4,55226,850796,fine,true
pillbox,4,64265,132476,fine,false
pillow,4,20438,91201,fine,true
pillow,4,32167,86796,fine,true
pillow,4,76803,195597,fine,true
pin,4,87879,260802,fine,true
pin,4,29683,104475,fine,true
pinball,4,76835,248991,fine,true
pine_needle,4,179621,510872,fine,true
pine_tree,4,52137,160183,fine,true
pineapple,4,69692,177843,fine,true
pinecone,4,33144,77166,fine,true
pinecone,4,42221,120439,fine,true
pipe1,4,15346,64570,fine,true
pitcher,4,76239,423259,fine,true
plant,4,28305,314544,fine,true
plant,4,45781,166201,fine,true
plum,4,17590,98495,fine,true
pocket,4,25990,929562,fine,true
pocket,4,47963,553678,fine,true
pocket,4,27032,103088,fine,true
pocketknife,4,24114,62588,fine,true
pocketknife,4,24830,73473,fine,true
pocketknife,4,108011,163519,fine,true
polaroid,4,26475,72233,fine,true
pole,4,20795,67195,fine,true
police_car,4,131981,254496,fine,true
police_car,4,67816,170990,fine,true
police_car,4,73396,129215,fine,true
polo_shirt,4,51858,165611,fine,true
polo_shirt,4,126201,217372,fine,true
polo_shirt,4,12080,57937,fine,true
polo_shirt,4,39536,72026,fine,true
polygraph,4,187538,540559,fine,true
polygraph,4,51360,178414,fine,true
polygraph,4,69820,215408,fine,true
pom-pom,4,15758,109015,fine,true
pom-pom,4,30394,95799,fine,true
pom-pom,4,56197,1084788,fine,true
porthole,4,183775,328388,fine,true
porthole,4,37398,115447,fine,true
poster,4,45772,97636,fine,false
pretzel,4,42038,106541,fine,true
pretzel,4,26707,87903,fine,true
pretzel,4,44483,143598,fine,true
printer,4,95639,446526,fine,true
printer,4,33524,87043,fine,true
printer,4,45571,374469,fine,true
pumpkin,4,27168,139303,fine,true
punch1,4,14399,52693,fine,true
punch1,4,131331,306432,fine,true
punching_bag,4,18405,312149,fine,true
punching_bag,4,29978,74874,fine,true
punching_bag,4,131854,199980,fine,true
puppet,4,20286,106715,fine,true
puppet,4,32515,121819,fine,true
puppy,4,24235,1100691,fine,true
puppy,4,69969,161074,fine,true
puppy,4,56530,101850,fine,true
puppy,4,76267,147749,fine,true
purse,4,14178,87880,fine,true
purse,4,33424,116956,fine,true
purse,4,34706,232292,fine,true
purse,4,52051,212304,fine,true
purse,4,30477,351278,fine,true
purse,4,49832,234964,fine,true
purse,4,39486,479520,fine,true
quesadilla,4,114981,299978,fine,true
quesadilla,4,17356,63275,fine,true
quesadilla,4,22227,271389,fine,true
quiche,4,118198,272238,fine,true
quiche,4,60084,384263,fine,true
quiche,4,226868,533101,fine,false
quiche,4,55856,118959,fine,true
quiche,4,94423,233273,fine,true
quiche,4,82551,239943,fine,true
rag,4,11436,48971,fine,true
rag,4,31812,91141,fine,true
rag,4,15876,75197,fine,false
rain_gauge,4,31281,75306,fine,false
raincoat,4,93817,248586,fine,false
raincoat,4,14105,52195,fine,false
rat,4,51896,129095,fine,true
rat,4,48486,189276,fine,true
revolver,4,23764,262099,fine,true
ribbon,4,44473,98036,fine,true
ribbon,4,19235,64934,coarse,true
ribbon,4,61126,316585,fine,true
ribbon,4,86608,544883,fine,true
rice,4,31714,204935,fine,true
rice,4,19956,84185,fine,true
rice,4,26067,124769,fine,true
rice,4,221491,295119,fine,true
ring,4,25455,216661,fine,true
ring,4,23856,409162,fine,true
ring,4,119968,235736,fine,true
ring,4,48479,96094,fine,true
ring,4,12673,50510,fine,true
ring,4,40903,247828,fine,true
riser,4,52359,113515,fine,true
riser,4,84998,247115,fine,false
robe,4,27111,119322,fine,true
robot,4,216614,1438338,fine,true
roll,4,11179,476350,fine,true
roller,4,44603,197537,fine,true
roller,4,12319,42531,fine,false
roller,4,32709,157517,fine,true
rolling_pin,4,101180,337523,fine,true
rolling_pin,4,35075,122760,fine,true
rolling_pin,4,48715,1366063,fine,true
rolling_pin,4,22830,284332,fine,true
root,4,46777,115920,fine,true
ruler,4,46695,121154,fine,true
ruler,4,69003,157571,fine,true
ruler,4,35028,130987,fine,true
ruler,4,54254,142095,fine,true
ruler,4,32015,328095,fine,true
ruler,4,30897,58227,fine,true
saddle,4,55732,155937,fine,false
saddle,4,44037,197973,fine,true
safety_pin,4,104638,411435,fine,true
sandal,4,64125,136479,fine,true
sandal,4,70592,486897,fine,true
sandal,4,44015,112559,fine,true
sandwich,4,9188,412969,fine,true
sardine,4,21947,297733,fine,true
sardine,4,22870,60248,fine,true
sardine,4,40762,123608,fine,true
sardine,4,21819,39489,fine,true
satellite,4,45725,372702,fine,true
saucer,4,70666,136124,fine,true
saucer,4,8737,91959,fine,true
saucer,4,59919,236135,fine,true
saucer,4,19045,126326,fine,false
saucer,4,13015,72971,fine,true
scallop,4,32603,101518,fine,true
scallop,4,37079,87718,fine,false
scallop,4,43448,182507,fine,true
scallop,4,184143,410009,fine,false
scallop,4,21478,146431,fine,true
scallop,4,11708,92157,fine,true
scanner,4,79515,210457,coarse,true
scanner,4,60415,166522,fine,true
scarf,4,11733,28977,fine,true
scone,4,67892,151699,fine,true
scoop,4,20319,79930,fine,true
scoop,4,45612,94809,fine,true
scoop,4,24179,120103,fine,true
scoop,4,33362,121628,fine,true
scooter,4,23183,285123,fine,true
scooter,4,68010,163546,fine,true
scooter,4,79252,807673,fine,true
scoreboard,4,168802,370393,fine,true
scoreboard,4,35762,124762,fine,true
scoreboard,4,17115,39062,fine,true
scorpion,4,57450,151981,fine,true
scorpion,4,41067,152816,fine,true
scorpion,4,67488,190842,fine,true
scuba,4,83543,192655,fine,true
scuba,4,106476,189580,fine,false
scuba,4,77095,1081168,fine,true
scuba,4,66521,142312,fine,true
seafood,4,7650,22097,fine,true
seafood,4,150844,361375,fine,true
seafood,4,19088,59666,fine,true
seagull,4,16725,53396,fine,false
sewing_kit,4,89572,175176,fine,true
sewing_kit,4,33624,93092,fine,true
sewing_kit,4,51217,132543,fine,true
sewing_kit,4,37372,166867,fine,false
shears,4,65363,214558,fine,true
shears,4,18271,238877,fine,true
sheet,4,28983,115142,fine,true
shoe,4,46209,122176,fine,true
shoulder,4,124250,299023,fine,true
showerhead,4,68580,177844,fine,true
showerhead,4,74652,153310,fine,true
showerhead,4,56101,203328,fine,true
showerhead,4,96102,410567,fine,true
shredder,4,63994,239466,fine,true
shredder,4,64513,147669,fine,true
shredder,4,70859,206920,fine,true
shredder,4,74739,199847,fine,true
shrimp,4,17060,65404,fine,true
shrimp,4,23938,260117,fine,true
shutter,4,71427,170101,fine,true
sink,4,24129,150324,fine,true
skateboard,4,20552,209958,fine,true
skateboard,4,35431,140654,fine,true
skateboard,4,37885,684681,fine,true
skewer,4,67211,509551,fine,true
skewer,4,15164,179861,fine,true
skewer,4,23151,1570577,fine,true
skewer,4,12232,96016,coarse,true
skull,4,16905,49291,fine,true
skull,4,30472,76181,fine,true
skull,4,46247,137163,fine,true
skunk,4,57131,350328,fine,true
skunk,4,34138,185821,fine,true
slide,4,60685,345495,fine,true
slide,4,56889,145888,fine,true
slide,4,40138,110876,fine,true
slot,4,33036,1251371,fine,true
slot,4,60420,187729,fine,true
slot,4,93806,248209,fine,true
slot_machine,4,52976,879520,fine,true
slot_machine,4,23065,51348,fine,true
snowboard,4,132110,289460,fine,false
snowman,4,37453,446405,fine,true
snowshoe,4,51172,108967,fine,false
soccer_ball,4,15446,31531,fine,true
soldering_iron,4,44406,527329,fine,true
soldering_iron,4,25651,102913,fine,true
sonogram,4,173913,259422,fine,true
souffle,4,33539,169436,fine,true
souffle,4,14310,132591,fine,true
souffle,4,16139,109439,fine,true
souffle,4,24803,72507,fine,true
soy_sauce,4,60437,131000,fine,true
soy_sauce,4,31807,726402,fine,true
space_shuttle,4,33737,90996,fine,true
spacesuit,4,70130,224407,fine,true
spaghetti,4,10021,121090,fine,true
spatula,4,21117,120514,fine,true
speaker,4,63164,183704,fine,true
speedometer,4,49108,172775,fine,true
speedometer,4,55642,248854,fine,true
spinach,4,8285,81140,fine,true
spinach,4,17553,60006,fine,false
sponge,4,42045,93380,fine,true
spool,4,47950,446523,fine,true
spool,4,30937,131847,fine,true
spool,4,29826,76533,fine,true
spring_roll,4,55613,211316,fine,true
spring_roll,4,32124,119380,fine,true
spring_roll,4,34266,252629,fine,true
springboard,4,152377,311829,fine,true
springboard,4,60559,388205,fine,false
springboard,4,35941,168519,fine,true
springboard,4,18116,81909,fine,false
stair,4,42699,105213,fine,true
stair,4,148778,262415,fine,true
stair,4,131888,280009,fine,true
stair,4,33889,126979,fine,true
staple_gun,4,39756,148758,fine,false
star_fruit,4,29405,87576,fine,false
star_fruit,4,14552,207572,fine,false
star_fruit,4,45615,75548,fine,false
star_fruit,4,34460,78146,fine,true
station_wagon,4,43629,120142,fine,true
steak,4,46550,152575,fine,true
steering_wheel,4,63333,124501,fine,true
steering_wheel,4,37018,112983,fine,true
steering_wheel,4,63566,348831,fine,true
stiletto,4,43343,149712,fine,true
stiletto,4,23491,88326,fine,true
stiletto,4,14832,50584,fine,true
stingray,4,32123,202470,fine,true
stingray,4,43307,117550,fine,true
stingray,4,18116,548006,fine,true
stingray,4,29360,96728,fine,true
stingray,4,85646,308477,fine,true
stingray,4,50713,209237,fine,true
stirrup,4,35153,1865227,fine,true
stirrup,4,27035,83741,fine,false
stirrup,4,96214,280544,fine,true
stirrup,4,9388,44923,fine,false
straightjacket,4,42781,242970,fine,true
straightjacket,4,46263,135852,fine,true
straightjacket,4,30646,91792,fine,true
straightjacket,4,54094,113392,fine,false
straw1,4,38057,125006,fine,false
straw2,4,34537,258076,fine,true
straw2,4,39087,196200,fine,true
straw2,4,19639,60128,fine,true
straw2,4,29829,120297,fine,true
stretcher,4,145049,401275,fine,true
stretcher,4,65229,152938,fine,true
stretcher,4,15541,269117,coarse,true
stretcher,4,25940,78025,fine,true
stretcher,4,36790,77948,fine,false
stroller,4,48647,123374,fine,true
stroller,4,45269,182557,fine,true
stuffing,4,48122,128226,fine,false
stuffing,4,49668,916241,fine,true
stump,4,38265,136388,fine,true
stump,4,7431,30957,fine,true
stump,4,23961,77705,fine,true
stump,4,34389,86362,fine,true
suit,4,63903,123333,fine,true
sundial,4,79747,498984,fine,true
sundial,4,123228,399510,fine,true
sundial,4,26428,258625,fine,true
sundial,4,47945,402200,fine,true
suspenders,4,23844,64677,fine,false
swab,4,16827,1197422,fine,true
swab,4,18125,126118,fine,true
swab,4,12368,62817,fine,false
swab,4,20574,99925,fine,false
swordfish,4,36996,121947,fine,true
tablecloth,4,20224,68533,fine,true
tablet,4,64970,137349,fine,true
tablet,4,115455,301010,fine,true
tablet,4,42787,136948,fine,true
tablet,4,28101,128247,fine,true
tablet,4,26677,76042,fine,true
tack,4,14802,92870,fine,true
tack,4,15710,224695,fine,true
tack,4,61020,510039,fine,true
tamale,4,10470,61059,fine,false
tamale,4,63473,159304,fine,false
tamale,4,32671,69427,fine,false
tamale,4,32145,75137,fine,false
tamale,4,32521,135508,fine,true
tape,4,83076,185146,fine,true
tape,4,38830,100429,fine,true
tape,4,13767,42877,fine,false
tape,4,23882,92685,fine,true
tapestry,4,60917,155889,fine,false
tapestry,4,73532,120030,fine,true
tarantula,4,48461,130169,fine,true
tarantula,4,64784,123562,fine,true
tarantula,4,65949,174707,fine,true
tarantula,4,68853,111587,fine,true
tarp,4,55222,130811,fine,true
tarp,4,22810,67688,fine,false
tarp,4,64100,163938,fine,true
tarp,4,94007,346636,fine,true
teabag,4,17677,91563,fine,true
teabag,4,207694,555788,fine,true
teabag,4,21103,108653,fine,true
teabag,4,24005,82926,fine,true
teabag,4,18562,48834,fine,true
teabag,4,32336,87590,fine,true
teabag,4,45917,81262,fine,true
tee,4,48890,193021,fine,true
teepee,4,17951,46525,fine,true
teepee,4,80526,300416,fine,true
teepee,4,98781,193471,fine,true
terrarium,4,56916,163850,fine,true
terrarium,4,39859,70611,fine,true
terrarium,4,44523,134463,fine,true
thumb,4,56740,157827,fine,true
thumb,4,88084,930802,fine,true
thumb,4,18483,58188,fine,true
thumb,4,32223,82455,fine,true
tiara,4,28878,113332,fine,true
tiara,4,21089,48074,fine,true
tick,4,31630,153784,fine,true
toaster,4,64865,100727,fine,true
toaster,4,34639,432786,fine,true
toaster,4,171632,353487,fine,true
toilet,4,21991,93043,fine,true
toothpick,4,39939,121607,fine,true
toothpick,4,11043,150997,fine,true
tortellini,4,31178,148812,fine,true
tortellini,4,41030,171937,fine,true
tortellini,4,56396,176763,fine,true
tortilla,4,164247,1011268,fine,true
tortilla,4,11708,49335,fine,true
tortilla,4,38024,109058,fine,true
totem_pole,4,96638,348138,fine,true
toy,4,44520,83373,fine,true
train,4,48019,75000,fine,true
train,4,32965,129743,fine,true
train_car,4,14995,48167,fine,true
train_car,4,54729,170970,fine,false
train_car,4,85813,194119,fine,true
trashcan,4,30834,237766,fine,true
trashcan,4,5342,36417,fine,true
trashcan,4,29101,86381,fine,true
trashcan,4,27513,147663,fine,true
trashcan,4,45849,144248,fine,true
trashcan,4,20724,591594,fine,true
trashcan,4,31529,76227,fine,true
trophy,4,82883,1060359,fine,true
trophy,4,57610,302477,fine,true
truck,4,32918,133742,fine,true
truck,4,57718,299460,fine,true
truck,4,48703,175619,fine,true
tube_top,4,32082,125012,fine,true
tube_top,4,44260,188461,fine,true
tube_top,4,105724,539524,fine,true
tuning_fork,4,27068,105415,fine,true
tuning_fork,4,16858,117235,fine,true
tuning_fork,4,22085,121334,fine,false
tuning_fork,4,17014,363906,fine,true
turf,4,75446,247798,fine,false
turntable,4,37473,148026,fine,true
turntable,4,60740,134443,fine,true
turntable,4,59572,210962,fine,true
typewriter,4,43915,100866,fine,true
typewriter,4,21589,85541,fine,true
ukulele,4,30468,219186,fine,true
ukulele,4,41661,201605,fine,true
vial,4,27620,119386,fine,true
vial,4,34719,179499,fine,true
waffle_iron,4,41224,181057,fine,true
wand,4,33833,285031,fine,true
wand,4,22579,112239,fine,true
warthog,4,61358,187126,fine,true
warthog,4,71219,233455,fine,true
warthog,4,60166,118084,fine,false
warthog,4,43835,218217,fine,true
washcloth,4,30264,94253,fine,true
washcloth,4,20972,79026,fine,true
washcloth,4,62490,134508,fine,true
water_bottle,4,38699,157131,fine,true
water_bottle,4,15677,105232,fine,true
water_bottle,4,16861,64053,fine,true
watering_can,4,41211,138560,fine,true
watering_can,4,37884,103530,fine,true
watering_can,4,46017,111775,fine,true
wax,4,43223,359725,fine,true
wax,4,31812,124292,fine,true
wax,4,31019,108061,fine,false
whale,4,95206,252207,fine,true
whale,4,27421,142303,fine,true
whale,4,76582,222891,fine,true
wick,4,52291,142784,fine,true
wick,4,92749,277552,fine,true
wick,4,96255,237656,fine,true
wick,4,28652,280314,fine,true
wick,4,30260,121592,fine,true
wick,4,27055,133724,fine,true
wick,4,14691,57527,fine,true
wig,4,50584,321071,fine,true
wig,4,65954,195382,fine,true
window,4,7779,1039764,fine,true
window,4,6807,43652,fine,true
window,4,20363,125754,fine,true
window,4,53520,165456,fine,true
windowsill,4,34137,145219,fine,true
windshield,4,29160,85206,fine,false
windshield,4,76915,207538,fine,true
windshield,4,28334,65185,fine,true
windshield,4,51225,140158,fine,true
windshield,4,104523,215875,fine,true
windshield,4,8922,95366,fine,true
windshield,4,43355,187376,fine,true
wine,4,25472,101941,fine,true
wing,4,28432,92203,fine,true
wok,4,20935,87685,fine,true
wok,4,36507,111606,fine,true
wok,4,6325,98363,fine,true
wok,4,46573,430819,fine,true
wooden_leg,4,19542,41748,fine,true
wooden_leg,4,21588,98716,fine,true
wooden_leg,4,55874,783141,fine,true
wrist,4,31770,104895,fine,true
yacht,4,110062,308520,fine,true
yacht,4,101787,225809,fine,true
yacht,4,25927,88425,fine,true
accordion,6,33551,72957,fine,true
accordion,6,53306,137898,fine,true
acorn,6,11803,84481,fine,true
airbag,6,93406,225969,fine,true
airbag,6,69488,246404,fine,true
airbag,6,46245,179605,fine,true
airbag,6,32288,146156,fine,true
aircraft_carrier,6,157776,466105,fine,true
alpaca,6,23198,96039,fine,true
anchor,6,32287,237465,fine,true
anchor,6,70908,294596,fine,true
anchor,6,31859,378296,fine,true
anchor,6,36409,206017,fine,true
antelope,6,35281,110375,fine,false
antenna,6,13695,48922,fine,true
antenna,6,26988,216349,fine,true
antenna,6,58724,235397,fine,true
apple,6,15558,157892,fine,true
applesauce,6,7166,46042,fine,true
applesauce,6,42654,282945,fine,true
apron,6,113184,530426,fine,false
apron,6,14565,1182548,fine,true
apron,6,80990,235314,fine,true
backdrop,6,35013,764125,fine,false
backdrop,6,20894,228992,fine,false
backdrop,6,53127,187981,fine,true
backgammon,6,72334,187177,fine,false
backgammon,6,22951,74909,fine,true
backscratcher,6,17246,77071,fine,false
backscratcher,6,116433,336902,fine,true
backscratcher,6,22852,195504,fine,false
backscratcher,6,26214,100431,fine,true
ballot_box,6,43528,338488,fine,true
ballot_box,6,55497,226060,fine,true
ballot_box,6,43943,250237,fine,true
barrette,6,29717,185048,fine,false
barrette,6,28064,103634,fine,true
baseball,6,36937,286547,fine,true
baseball_glove,6,32647,211507,fine,true
baseball_glove,6,81082,258556,fine,true
baseball_glove,6,39494,160822,fine,true
baseball_glove,6,64022,407453,fine,true
basketball_hoop,6,12202,248502,fine,true
basketball_hoop,6,37291,193953,fine,true
basketball_hoop,6,25366,156425,fine,true
basketball_hoop,6,207362,803869,fine,true
basketball_hoop,6,88315,216493,fine,true
basketball_hoop,6,42367,216227,fine,true
baton4,6,9437,98617,fine,false
baton4,6,63798,284916,fine,true
baton4,6,191212,1250047,fine,true
battery,6,53678,196934,fine,true
battery,6,19398,231829,fine,true
beachball,6,77279,890551,fine,true
beachball,6,51454,218172,fine,true
beachball,6,13901,301374,fine,false
beanie,6,57683,2172132,fine,true
beanie,6,42313,147665,fine,true
beanie,6,8819,94144,fine,true
beanie,6,32553,384241,fine,true
bed,6,187836,1112319,fine,true
bed,6,57387,253332,fine,true
bedpan,6,257823,914937,fine,true
beehive,6,141695,391695,fine,true
beehive,6,49548,139307,fine,true
beehive,6,35779,177876,fine,true
bell,6,24796,175373,fine,true
bell,6,20617,206658,fine,true
bell,6,108699,523595,fine,true
bell,6,25815,120964,fine,true
belt_buckle,6,31311,183871,fine,true
belt_buckle,6,45112,299949,fine,true
belt_buckle,6,62790,2192651,fine,false
belt_buckle,6,23743,90150,fine,true
belt_buckle,6,79969,311868,fine,true
belt_buckle,6,8409,30441,fine,true
belt_buckle,6,99307,443414,fine,true
berry,6,37570,115127,fine,true
berry,6,36556,246144,fine,true
berry,6,42750,168222,fine,true
biscuit,6,47549,358514,fine,true
blackberry,6,5383,38933,fine,true
blackberry,6,34981,123274,fine,true
blindfold,6,25378,252063,fine,true
blindfold,6,126036,414643,fine,true
blindfold,6,48610,253827,fine,true
blindfold,6,36446,169675,fine,true
blower,6,23355,109688,fine,true
blowfish,6,63472,303270,fine,true
blowfish,6,95763,297971,fine,true
blowfish,6,56562,350482,fine,true
blowtorch,6,112956,588709,fine,true
blueberry,6,152179,462103,fine,false
blueberry,6,8632,495741,fine,true
blueberry,6,11078,66069,fine,true
boa,6,90815,463903,fine,true
boa,6,43186,174257,fine,true
boa,6,20010,60274,fine,false
boar,6,32767,146687,fine,false
bobsled,6,88590,244249,fine,true
bobsled,6,27548,151695,fine,true
bolo_tie,6,33334,189239,fine,true
bomb,6,19195,106397,fine,true
bomb,6,12363,111283,fine,false
bonnet,6,44204,694355,fine,true
bonnet,6,71701,212682,fine,true
book,6,20214,120304,fine,true
book,6,44709,319847,fine,true
book,6,80489,375848,fine,true
bookshelf,6,14878,168905,fine,true
boomerang,6,49514,170912,fine,true
boomerang,6,116373,287105,fine,true
boomerang,6,10613,1514193,fine,true
bottle_opener,6,13877,311166,fine,true
bottle_opener,6,22138,104252,fine,true
bottle_opener,6,31844,175522,fine,true
bra,6,41619,132117,fine,true
bra,6,181275,606560,fine,true
bra,6,59349,272550,fine,true
bra,6,94891,227489,fine,true
bread,6,15123,121873,coarse,true
bread,6,23223,1597015,fine,true
bread,6,32509,544754,fine,true
bread,6,9065,425141,fine,true
bread,6,12620,194833,fine,true
brick,6,22001,103268,fine,true
briefcase,6,18777,49512,fine,true
brush,6,178775,346351,fine,true
buffet,6,77068,188846,fine,true
bug,6,29146,146493,fine,true
bullet,6,59641,271796,fine,true
bullet,6,107658,420387,fine,true
bullet,6,15272,220679,fine,true
burner,6,122715,248639,fine,true
burner,6,38645,325851,fine,true
burner,6,198535,538676,fine,true
burner,6,70932,1439871,fine,true
cabbage,6,53740,167404,fine,true
cable,6,7166,248822,fine,true
cable,6,39406,256628,fine,true
cake,6,43863,139021,fine,true
calculator,6,38056,112704,fine,true
calculator,6,101066,787879,fine,true
calculator,6,83643,226379,fine,true
calculator,6,55301,180150,fine,true
calculator,6,85214,237267,fine,true
calculator,6,21109,494822,fine,false
calf1,6,48507,160117,fine,true
calf1,6,43670,325933,fine,true
calf1,6,101999,310338,fine,true
calf1,6,41895,162803,fine,true
calf1,6,70252,242123,fine,true
camper,6,47034,229969,fine,true
camper,6,62055,466459,fine,true
camper,6,60959,224771,fine,true
candle,6,9891,35059,fine,true
candle,6,55913,421649,fine,true
candle,6,10814,72402,fine,true
candlestick,6,47440,239812,fine,true
candlestick,6,67954,287967,fine,true
canoe,6,82534,262131,fine,true
cardboard,6,38131,232458,fine,true
cardboard,6,38423,154942,fine,true
cardboard,6,23789,107952,fine,true
cardboard,6,45212,328000,fine,true
cashew,6,27062,363901,fine,true
cassette,6,36534,136266,fine,false
cassette,6,50067,219905,fine,true
cassette,6,26750,120081,fine,true
cassette,6,49130,159274,fine,true
catapult,6,59226,212377,fine,true
caterpillar,6,19370,349142,fine,true
caterpillar,6,45447,361231,fine,true
caterpillar,6,83330,889864,fine,true
caterpillar,6,14797,76475,fine,true
catfish,6,55343,201746,fine,true
catfish,6,38340,269296,fine,true
cauliflower,6,12349,72804,fine,true
chain,6,19547,85630,fine,true
chain,6,19925,92309,fine,true
chain,6,17506,291491,fine,true
chain,6,22910,324783,fine,true
chair,6,98010,827662,fine,true
chalice,6,79434,174674,fine,true
chalice,6,53908,298862,fine,true
chalice,6,14993,132245,fine,true
chalice,6,64120,202745,fine,true
chaps,6,24861,153456,fine,false
chaps,6,22146,618543,fine,true
chaps,6,149244,399202,fine,true
charger,6,21792,73575,fine,true
charger,6,36921,145964,fine,true
cheese,6,14363,101369,fine,true
cheese,6,17112,76050,fine,true
cheese,6,20092,97082,fine,false
cheeseburger,6,249323,455136,fine,true
cheeseburger,6,36779,249884,fine,true
cheeseburger,6,45598,200816,fine,true
cheeseburger,6,47110,288646,fine,true
cheesecake,6,15324,85477,fine,true
cheetah,6,117040,472507,fine,false
cheetah,6,108879,228016,fine,true
cheetah,6,62979,551588,fine,true
cheetah,6,96739,335736,fine,true
cheetah,6,55488,270792,fine,false
cheetah,6,92943,434540,fine,true
cherry,6,42257,232766,fine,true
chess_piece,6,52917,207278,fine,true
chest1,6,40665,80398,fine,false
chest1,6,33350,302827,fine,true
chest1,6,70014,195261,fine,true
chick,6,31712,109973,fine,true
chick,6,14660,76566,fine,true
chihuahua,6,74731,203634,fine,true
chocolate,6,28553,227346,fine,true
chocolate,6,21417,194130,fine,true
chocolate,6,17975,68736,fine,true
cigarette_butt,6,11100,76638,fine,true
cigarette_butt,6,15960,124302,fine,true
cigarette_butt,6,27260,188436,fine,true
cigarette_holder,6,19008,161237,fine,true
cigarette_holder,6,32497,212077,fine,true
cigarette_holder,6,74190,217414,fine,true
cigarette_holder,6,18344,108450,fine,true
clipper2,6,63821,228595,fine,true
clipper2,6,88806,523709,fine,true
clipper2,6,71818,193894,fine,true
clock,6,135342,505062,fine,true
clock,6,28789,228928,fine,true
clock,6,43089,108040,fine,true
clove,6,145759,848766,fine,true
clove,6,101901,541620,fine,true
coal,6,15021,113432,fine,true
coal,6,26998,133931,fine,false
coaster,6,16733,175055,fine,true
coaster,6,64674,229938,fine,true
coaster,6,65585,168749,fine,true
coaster,6,68743,244159,fine,true
coaster,6,41759,220727,fine,false
coaster,6,44547,153383,fine,true
coaster,6,25355,177935,fine,true
coffee_table,6,60054,453472,fine,true
coffeemaker,6,18036,54438,fine,true
coffeemaker,6,47115,174166,fine,true
coffeemaker,6,39807,130493,fine,true
coffeemaker,6,35252,138461,fine,true
coin,6,12083,276501,fine,true
contact_lens,6,53184,193276,fine,true
contact_lens,6,33186,138988,fine,true
contact_lens,6,18620,132179,fine,true
container,6,20221,189614,fine,true
container,6,21764,124334,fine,true
container,6,186938,312297,fine,true
container,6,31915,326293,coarse,true
coop,6,80896,495402,fine,true
coop,6,132242,312570,fine,true
coop,6,87228,292178,fine,false
crayfish,6,43057,406674,fine,true
crayfish,6,33406,159923,fine,true
crayfish,6,23349,134782,fine,false
crayon,6,10220,71451,fine,true
crepe,6,240261,1160672,fine,true
crossbow,6,32624,442635,fine,true
crow,6,23800,95925,fine,false
crow,6,145811,438863,fine,true
crow,6,70794,669568,fine,true
crow,6,71053,277292,fine,true
crown,6,53195,357003,fine,true
crown,6,13778,93892,fine,true
crystal1,6,47994,174734,fine,true
crystal2,6,11624,85737,fine,true
crystal2,6,18055,119612,fine,true
crystal2,6,43010,187167,fine,true
cuckoo_clock,6,13769,46999,fine,false
cucumber,6,24165,105611,fine,true
curb,6,15100,101136,fine,false
curb,6,56474,198920,fine,true
curb,6,42325,255483,fine,true
curtain,6,35624,171403,fine,true
curtain,6,23679,182921,fine,true
curtain,6,307794,526808,fine,true
curtain,6,92161,274496,fine,true
cymbal,6,75944,326037,fine,false
cymbal,6,54619,286402,coarse,true
cymbal,6,358731,3092354,fine,true
cymbal,6,68754,255022,fine,true
cymbal,6,45102,153708,fine,true
deer,6,22850,83688,fine,true
deer,6,49175,190114,fine,true
deer,6,34636,187075,fine,true
dessert,6,52696,377484,fine,false
dessert,6,22190,88994,fine,true
dessert,6,33310,164918,fine,true
dial,6,12810,62996,fine,false
dial,6,109646,241235,fine,true
dial,6,25600,177959,fine,true
diamond,6,12898,114067,fine,true
diaper,6,38341,273813,fine,false
diaper,6,13266,63246,fine,true
dip,6,30418,189466,fine,true
dip,6,26262,138854,fine,true
dip,6,82316,294255,fine,true
dip,6,63422,202099,fine,true
dirt_bike,6,77856,189205,fine,true
dirt_bike,6,26597,77668,fine,false
dirt_bike,6,33909,117407,fine,true
dish,6,26074,140455,fine,true
dishwasher,6,32541,217901,fine,true
diskette,6,31292,307899,fine,true
diving_board,6,22738,154426,coarse,true
diving_board,6,60723,317067,fine,true
diving_board,6,143632,456681,fine,true
door,6,7069,113606,fine,true
door,6,54505,559460,fine,true
door,6,58256,169721,fine,true
dragonfly,6,72535,296327,fine,true
dragonfly,6,10021,246762,fine,true
dragonfly,6,44964,146843,fine,true
dragonfly,6,14426,97788,fine,true
dragonfly,6,78109,522010,fine,true
drain,6,25086,569768,fine,false
drain,6,35873,174098,fine,true
drain,6,121844,335372,fine,true
drain,6,90121,289094,fine,true
drain,6,86360,283590,fine,true
drain,6,30192,172770,fine,true
drain,6,57558,306879,fine,true
dress,6,42928,188398,fine,true
dress,6,40484,309182,fine,true
dress,6,47544,226618,fine,true
drumstick,6,7052,48162,fine,false
dumbwaiter,6,23744,155489,fine,true
dumbwaiter,6,90611,339088,fine,true
dumpster,6,117393,466161,fine,true
dumpster,6,75414,387120,fine,true
dumpster,6,64448,213449,fine,true
dumpster,6,23014,251957,fine,true
dumpster,6,45538,158663,fine,true
dumpster,6,44235,135207,fine,true
duster,6,24404,114653,fine,true
duster,6,12145,61797,fine,true
dustpan,6,20484,103411,fine,true
easel,6,239019,399367,fine,true
easel,6,58902,203266,fine,true
easel,6,41373,165234,fine,true
eel,6,12427,128345,fine,true
eel,6,49764,274207,fine,true
eel,6,22972,314856,fine,true
eggplant,6,19092,139312,fine,true
eggplant,6,16064,115672,fine,true
eggplant,6,9981,560998,fine,true
face,6,39652,380560,fine,true
fast_food,6,34427,168614,fine,true
faucet,6,37963,181829,fine,true
faucet,6,17225,305162,fine,true
faucet,6,40949,119611,coarse,true
ferris_wheel,6,97232,569742,fine,true
ferris_wheel,6,53167,201097,fine,true
ferris_wheel,6,83428,571624,fine,true
file1,6,104271,270586,fine,true
fingerprint,6,24767,136919,fine,true
fingerprint,6,23062,115987,fine,false
fire_alarm,6,109989,593292,fine,true
fire_alarm,6,27186,116954,fine,true
fire_alarm,6,36496,275502,fine,true
fireplace,6,49087,169683,fine,true
fireplace,6,85095,219583,fine,true
fireplace,6,60178,344129,fine,true
fishbowl,6,29252,1598802,fine,true
fishbowl,6,8270,67249,fine,true
fishbowl,6,61489,394075,fine,true
fishbowl,6,40438,178170,fine,true
fishhook,6,17817,164512,fine,true
fishhook,6,17252,311468,fine,true
fishing_pole,6,64064,346356,fine,true
fishing_pole,6,59065,167152,fine,true
fishing_pole,6,49244,315144,fine,true
fishnet_stockings,6,28465,102616,fine,true
fishnet_stockings,6,166728,720749,fine,true
fishnet_stockings,6,59597,170990,fine,true
flag,6,50060,250654,fine,true
flag,6,22046,216050,fine,true
flashlight,6,12073,79193,fine,true
flashlight,6,46451,248828,fine,true
flashlight,6,28623,176813,fine,true
flask,6,13808,633091,fine,true
flipper,6,65204,1517998,fine,true
flipper,6,14782,2143475,fine,true
flipper,6,28836,351654,fine,false
flower,6,18251,246612,fine,true
flower,6,16056,177050,fine,true
flower,6,14781,619735,fine,true
fly,6,80643,230951,fine,true
fly,6,45298,199600,fine,true
fly,6,31358,178107,fine,true
fly,6,22765,111749,fine,true
fly,6,17600,611766,fine,true
fly,6,11177,89726,fine,false
flyswatter,6,49942,252131,fine,true
flyswatter,6,23044,254969,fine,true
folder,6,13977,74824,fine,true
folder,6,16647,43320,fine,true
folder,6,34753,229688,fine,true
fondue,6,49058,191800,fine,true
fondue,6,51215,137730,fine,false
fondue,6,123009,842321,fine,true
footprint,6,53056,229625,fine,true
footprint,6,11771,47794,fine,true
footrest,6,53097,173465,fine,true
footrest,6,54422,290561,fine,true
footrest,6,30452,107692,fine,true
footrest,6,21717,336874,fine,true
footrest,6,77679,280038,fine,true
footrest,6,58659,280559,fine,false
footrest,6,53485,242505,fine,true
forklift,6,19213,66872,fine,true
forklift,6,150114,435163,fine,true
forklift,6,120282,1989739,fine,true
forklift,6,50200,137693,fine,true
frame,6,34088,134024,fine,true
french_fries,6,10524,98779,fine,true
french_fries,6,63259,266588,fine,true
frog,6,195663,464316,fine,true
frog,6,80352,198768,fine,true
frog,6,156565,1351279,fine,true
fruitcake,6,32038,116955,fine,true
fur_coat,6,35133,101791,fine,false
furnace,6,50311,231583,fine,true
furnace,6,73464,296398,fine,true
furnace,6,130738,715419,fine,true
fuse,6,74046,228545,fine,false
fuse,6,22538,60917,fine,true
garter,6,10106,78943,fine,false
gas_mask,6,31288,230125,fine,true
gazelle,6,58682,233356,fine,false
gazelle,6,101033,518352,fine,true
ginger,6,36824,219968,fine,true
glass,6,25808,297528,coarse,true
glass,6,12428,93868,fine,true
glass,6,69716,225000,fine,true
glasses,6,32156,353879,fine,true
glasses,6,24147,91534,coarse,true
glasses,6,10956,110389,fine,true
glasses,6,27789,576541,fine,true
goat,6,25558,107994,fine,true
golf_cart,6,121702,664203,fine,true
golf_cart,6,54994,185020,fine,true
golf_cart,6,43365,181529,fine,true
golf_cart,6,160634,500095,fine,true
golf_cart,6,79780,271222,fine,true
gorilla,6,48121,143195,fine,true
gourd,6,95792,507008,fine,true
gourd,6,12129,94355,fine,true
gourd,6,32195,280703,fine,true
gourd,6,47189,150946,fine,true
gramophone,6,19070,120250,fine,true
gramophone,6,24908,113625,fine,false
gramophone,6,75394,860644,fine,true
gramophone,6,16479,63506,fine,false
granola,6,39687,167552,fine,true
granola,6,31941,124947,fine,true
grass,6,103174,632940,fine,true
grass,6,56685,160005,fine,true
grass,6,52304,489309,fine,true
grass,6,196003,552199,fine,true
grass,6,24025,130083,fine,true
grate,6,41103,143657,fine,true
gravel,6,109817,313605,fine,true
gravel,6,29771,251142,fine,true
gravel,6,17728,228094,fine,true
gravel,6,62965,324764,fine,true
gravel,6,25347,85664,fine,true
gravel,6,40244,256197,fine,false
gravel,6,43459,125892,fine,true
gravel,6,32347,114660,fine,true
gravestone,6,8140,494669,fine,true
gravestone,6,38962,327784,fine,true
gravestone,6,16060,64479,fine,true
gravy,6,22225,135179,fine,false
gravy,6,42054,196719,fine,true
gravy,6,43049,318953,fine,true
green_beans,6,55610,246079,fine,true
grenade,6,43626,259581,fine,true
grille,6,25868,128477,fine,true
grille,6,26476,175540,fine,true
grits,6,36159,158188,fine,true
grits,6,210237,746669,fine,false
groundhog,6,30790,225975,fine,false
groundhog,6,110372,495124,fine,true
guacamole,6,30990,166357,fine,true
guacamole,6,16639,418908,fine,true
guacamole,6,12170,62381,coarse,true
gum,6,13625,74972,fine,false
gum,6,46281,354929,fine,true
gum,6,97884,208572,fine,true
ham,6,55495,685745,fine,true
hammer,6,43284,169611,fine,true
hammer,6,34103,210734,fine,false
hammock,6,33272,270440,fine,true
handbrake,6,455366,844403,fine,true
handbrake,6,414287,708808,fine,true
handbrake,6,99971,288575,fine,true
handbrake,6,18137,117804,fine,false
handlebar,6,17077,99480,fine,true
handlebar,6,101872,254023,fine,true
handlebar,6,20594,49504,fine,true
handlebar,6,44112,97954,fine,true
handprint,6,34258,237613,fine,true
handprint,6,60772,277243,fine,true
handprint,6,41975,206170,fine,true
headdress,6,57831,309933,fine,true
headdress,6,8175,207732,fine,true
headdress,6,69035,267778,fine,true
headlamp,6,7021,107253,fine,true
headlamp,6,92805,527129,fine,true
headlamp,6,30592,120342,fine,true
headlamp,6,67118,182446,fine,false
headlamp,6,38011,911460,fine,true
headlamp,6,33349,173936,fine,true
headlamp,6,44813,126025,fine,true
heater,6,23393,76927,fine,true
heater,6,112525,304213,fine,true
heater,6,38788,124853,fine,true
helicopter,6,47972,158292,fine,true
helicopter,6,39561,135446,fine,true
helicopter,6,87784,253878,fine,true
helmet,6,52400,243249,fine,true
helmet,6,26672,89715,fine,true
helmet,6,69613,265206,fine,true
highlighter,6,16047,85269,fine,true
highlighter,6,33207,260022,fine,true
highlighter,6,21522,86496,fine,false
highlighter,6,53032,255192,fine,true
hinge,6,48054,125518,fine,true
hockey_stick,6,47715,245032,fine,true
hockey_stick,6,62929,257775,fine,true
hockey_stick,6,52425,197148,fine,true
hockey_stick,6,17188,1099795,fine,true
honey,6,25197,270266,fine,true
honey,6,18108,778291,fine,false
honey,6,14301,897451,fine,true
honey,6,38393,121986,fine,false
honeypot,6,6680,1902128,fine,false
honeypot,6,25931,95065,fine,true
honeypot,6,180013,700231,fine,false
hoodie,6,101845,276125,fine,true
hoodie,6,89108,347327,fine,true
hoodie,6,47634,179326,fine,true
hoodie,6,24301,711353,fine,true
hook2,6,25287,219388,fine,true
hook2,6,43557,214367,fine,true
hookah,6,27773,138480,fine,true
hookah,6,32752,130857,fine,true
hookah,6,44364,1130966,fine,true
horn,6,20629,113339,fine,false
horn,6,66090,322922,fine,true
horn,6,25331,1355019,fine,false
hourglass,6,43396,204384,fine,true
hourglass,6,40315,145888,fine,false
hyena,6,51985,984952,fine,false
hyena,6,64656,621334,fine,true
ice,6,53189,428141,fine,true
ice_pack,6,75161,612260,fine,false
ice_pack,6,131613,536296,fine,true
icemaker,6,68377,205223,fine,true
icemaker,6,27406,128359,fine,false
iceskate,6,44904,345697,fine,true
iceskate,6,132934,252896,fine,true
iguana,6,32864,696798,fine,true
iguana,6,41342,155121,fine,true
iguana,6,56172,1574451,fine,true
ironing_board,6,166629,673320,fine,false
ironing_board,6,15107,136450,fine,true
jam,6,121219,1003268,fine,true
jeep,6,87864,490498,fine,true
jersey,6,14835,756938,fine,true
jersey,6,114732,531384,fine,true
jigsaw_puzzle,6,60698,136342,fine,true
jigsaw_puzzle,6,101556,273760,fine,false
jigsaw_puzzle,6,56568,358024,fine,true
jigsaw_puzzle,6,28319,164556,fine,true
jigsaw_puzzle,6,67722,197204,fine,true
jug,6,121175,272949,fine,true
jug,6,40869,309997,fine,true
kaleidoscope,6,112765,231360,fine,true
kaleidoscope,6,19132,120862,fine,false
kettle,6,44497,89866,fine,true
kneepad,6,130919,1346851,fine,true
kneepad,6,142169,230375,fine,true
kneepad,6,35479,168783,fine,true
knot,6,98287,399679,fine,true
lab_coat,6,201354,554031,fine,true
lab_coat,6,21578,233531,fine,true
lab_coat,6,43911,121431,fine,true
lab_coat,6,86838,319582,fine,true
lab_coat,6,34874,130565,fine,true
lab_coat,6,15221,58344,fine,true
lamb,6,25618,80710,fine,true
lamp,6,39945,155549,fine,true
lamp,6,125552,1566997,fine,true
landmine,6,54125,185861,fine,false
landmine,6,15577,112584,fine,false
landmine,6,5199,41460,fine,true
laser_pointer,6,9019,167621,fine,false
laser_pointer,6,199476,1366716,fine,true
latte,6,24695,121185,fine,true
